sn	sess	chordID	num_trials	accuracy	num_fingers	MD	MT	RT	ET	MD_std	MT_std	RT_std	ET_std	diff_force_f1	diff_force_f2	diff_force_f3	diff_force_f4	diff_force_f5	force_f1	force_f2	force_f3	force_f4	force_f5	force_e1	force_e2	force_e3	force_e4	force_e5
 1	1	19999	5	  1	1	  0.4920764	    318.4	    169.6	      488	  0.6965602	 540.02481	202.78757	559.22804	        3.87	  -0.1993434	  -0.731216	   -0.471618	  -0.2287288	   -0.498704	   -0.640252	  -0.3847008	   -0.359752	   -0.158482	       3.3713	    -0.839606	     -1.11592	     -0.83136	     -0.38716
 1	1	91999	5	  1	1	  0.0054854	     20.4	    118.8	    139.2	0.002851384	  11.61034	157.54111	167.99167	  -0.0452128	     3.32916	 -0.3922422	   -0.440978	   -0.358672	    0.196042	     -1.7667	   -0.388878	 -0.06012156	 -0.01243472	     0.150804	       1.5624	   -0.7811306	    -0.501114	    -0.371072
 1	1	99199	3	0.6	1	   0.292917	219.33333	       40	259.33333	  0.4742361	 314.13585	30.265492	323.55731	  -0.3249933	  -0.1130707	     3.3015	   -0.069386	   0.3999067	     0.70867	    -0.66301	    -1.68906	    -0.49982	  -0.8020767	      0.38369	   -0.7760767	     1.612477	   -0.5691967	   -0.4022067
 1	1	99919	4	0.8	1	  0.5830765	      510	      181	      691	  0.5634994	 433.45127	209.00718	 622.6192	  -0.3475625	  -0.2270725	 -0.7583275	    2.036125	    0.273205	    1.144508	  -0.4345825	     0.78752	   -0.817545	  -0.5357425	    0.7969525	   -0.6616375	   0.02918217	      1.21855	     -0.26246
 1	1	99991	5	  1	1	  0.4054692	    526.4	      108	    634.4	  0.4472314	 553.96462	60.464866	 531.9124	    -0.30463	    -0.40242	  -0.533058	   -0.173598	      2.1099	   -0.895974	   -0.337622	   0.2207143	   0.7505288	   -0.759814	     -1.20056	    -0.740054	   -0.3123516	    0.5769264	      1.35012
 1	1	29999	5	  1	1	 0.01399986	     41.6	    153.6	    195.2	0.003413168	 17.052859	120.49398	137.19038	    -2.96982	     0.49066	  0.1400942	   -0.250398	  -0.1836927	     3.35928	   -0.110816	   -0.442593	  -0.0720924	  -0.1186188	     0.389446	    0.3798662	   -0.3024849	     -0.32249	    -0.302304
 1	1	92999	5	  1	1	 0.00594526	     23.2	      128	    151.2	0.002520607	 2.2803509	124.04032	124.78461	    0.106448	    -4.07636	  0.2475158	    0.059463	    0.548676	    -0.62966	     2.40824	  -0.7312246	   -0.620996	   -0.814928	     -0.52324	     -1.66814	   -0.4837096	    -0.561478	    -0.266288
 1	1	99299	5	  1	1	  0.1951511	      148	    111.2	    259.2	  0.4230565	 257.18087	87.699487	344.12091	   0.2017044	   -0.023249	   -3.32148	 -0.08717044	    0.290892	    -1.28858	   -0.490842	    2.359652	   -0.075285	     -0.4481	    -1.086874	    -0.514066	   -0.9618208	   -0.1624472	      -0.1572
 1	1	99929	4	0.8	1	  0.2738054	      141	      150	      291	  0.4070981	 142.73986	109.77553	157.77199	   -0.231104	  -0.1941225	  -0.264205	     -2.5529	  0.09783175	    0.437805	   -0.580195	    -0.37382	    1.282665	   -0.744555	    0.2067105	   -0.7742875	    -0.638041	    -1.270225	     -0.64672
 1	1	99992	3	0.6	1	0.004035933	13.333333	334.66667	      348	0.001345886	  4.163332	54.784426	58.275209	   0.4090067	   -0.018899	    0.40922	  -0.2730963	   -2.424567	  -0.2473667	  -0.8819367	   -1.028969	  -0.0933261	    1.813733	    0.1616373	   -0.9008167	   -0.6197673	   -0.3663967	   -0.6108467
 1	1	11999	5	  1	2	   0.836912	    752.8	    136.8	    889.6	  0.6398375	 737.94932	121.75056	798.19847	     3.31724	     3.44824	 0.09320552	   -0.470038	 -0.02908386	    0.280233	     -1.7892	  -0.2630304	   -0.126685	   -0.324966	      3.59746	        1.659	   -0.1698283	    -0.596722	    -0.354034
 1	1	19199	5	  1	2	   0.536862	    334.4	    130.8	    465.2	  0.3438994	 223.12956	122.67518	297.02054	     3.05674	  -0.3881658	    3.45552	   -0.043016	    0.390914	   -0.384968	    -0.54187	   -1.703738	   -0.309864	   -0.822054	      2.67176	    -0.930078	     1.751786	     -0.35288	    -0.431092
 1	1	19919	5	  1	2	   0.346596	    481.2	    151.6	    632.8	  0.3675821	 487.53379	158.38813	602.50079	     2.80544	   -0.286487	  -0.186288	     1.76574	   -0.120491	   -0.712564	    -0.30945	  -0.2908292	    -1.08512	   0.0444256	      2.09288	    -0.595924	   -0.4771028	     0.680638	   -0.0760294
 1	1	19991	5	  1	2	  0.3637996	    228.8	    176.4	    405.2	  0.2480689	 101.61299	176.99944	 239.9775	     2.87136	   0.1483056	  0.3093784	   0.0225568	     1.89852	  0.00176778	   -0.574766	  -0.3583368	  -0.1333576	   -1.079992	      2.87312	    -0.426468	  -0.04897682	    -0.110793	      0.81852
 1	1	91199	4	0.8	2	  0.1386663	       68	       93	      161	  0.1900934	 57.154761	116.40733	172.97784	   0.3667003	     3.46895	    3.69185	   0.0196225	    -0.26003	   -0.666905	    -1.63285	   -1.222512	  -0.1822425	   0.1109804	    -0.300215	     1.836125	     2.469337	   -0.1625655	     -0.14907
 1	1	91919	5	  1	2	  0.1836934	    255.2	      152	    407.2	  0.2179959	 403.37724	149.87995	547.29444	   -0.464492	     3.75528	    -0.4132	     1.83226	    0.516222	   -0.614438	     -1.6642	   0.4101326	   -0.333468	   -0.512698	    -1.078902	      2.09106	  -0.00307258	       1.4988	   0.00352894
 1	1	91991	5	  1	2	  0.1758082	    244.8	    111.6	    356.4	  0.1315793	 253.77392	30.899838	240.28899	    0.105602	     3.73508	    0.01856	  -0.1256804	     1.94264	  0.00203918	    -1.75554	 -0.09524266	   0.0150728	   -0.901792	     0.107618	      1.97952	  -0.07666848	    -0.110611	     1.040898
 1	1	99119	5	  1	2	  0.3094444	      160	    158.8	    318.8	  0.2347055	 128.06248	149.36934	272.80249	  -0.2792302	  -0.0630662	    3.55724	     2.01508	    0.472408	   -0.734626	   -0.401134	   -1.345756	   -0.538466	   -0.583734	    -1.013854	    -0.464208	      2.21148	      1.47658	   -0.1113098
 1	1	99191	5	  1	2	   0.582716	    721.2	    141.6	    862.8	  0.5389847	  994.2028	107.05513	1067.0891	    -0.13635	  -0.1100232	    2.64722	  -0.1144596	      1.8603	   0.0454172	  -0.2449942	   -1.363304	  -0.2040276	    -1.56056	    -0.090958	   -0.3550042	     1.283928	    -0.318494	      0.29974
 1	1	99911	5	  1	2	   0.405982	    470.8	    154.8	    625.6	  0.3097673	 751.91569	62.715229	747.14845	    -0.28977	  -0.5189836	  0.0676202	      2.1174	     1.77448	   -0.554066	  0.03956848	  -0.2287912	   -1.041716	    -0.70455	    -0.843792	    -0.479427	   -0.1611755	     1.075698	     1.069924
 1	1	12999	5	  1	2	   0.275449	      330	    289.6	    619.6	  0.4841727	 607.18366	299.04983	902.44379	      3.1369	    -3.62216	 -0.1415262	    -0.13807	   -0.225862	    -0.95637	     2.40736	   -0.173554	  -0.1645532	 -0.00482724	      2.18052	    -1.214754	   -0.3150541	     -0.30264	    -0.230728
 1	1	19299	5	  1	2	   1.044503	    514.8	      358	    872.8	  0.9959493	  422.1341	227.26196	 612.2444	       3.359	   0.4291754	   -4.37978	     0.48764	  -0.1666202	    -0.87836	   -0.382748	    3.373132	   -0.573326	   0.1201634	      2.48058	    0.0464564	    -1.006616	      -0.0857	   -0.0464212
 1	1	19929	4	0.8	2	  0.5379373	    635.5	      107	    742.5	  0.5329998	  649.0452	107.13854	700.88777	    3.650275	  -0.3039125	  0.1994532	    -2.63915	   0.3667625	   -1.168636	   -0.587765	  -0.4674018	      1.3572	  -0.6944675	      2.48165	   -0.8917025	   -0.2679557	    -1.282007	   -0.3276975
 1	1	19992	5	  1	2	   0.325158	    404.4	    190.8	    595.2	  0.4700749	 605.41787	 119.3365	719.66048	     3.43076	   -0.421016	 -0.1766152	   0.1916728	    -1.68394	   -1.133366	    -0.43514	  -0.2503751	    -1.00043	      1.2231	      2.29738	     -0.85618	   -0.4269854	    -0.808754	     -0.46085
 1	1	21999	5	  1	2	  0.3943306	    594.4	    192.8	    787.2	  0.4255922	 900.22042	106.87937	1002.7349	    -2.99088	     3.19764	  -0.502222	    0.313788	     0.23569	     3.27086	    -1.65336	  -0.3548582	    -0.98961	   -0.259394	      0.28006	      1.54428	   -0.8570846	    -0.675834	  -0.02365252
 1	1	29199	5	  1	2	  0.4108498	    283.6	    174.8	    458.4	  0.6273012	 328.24198	143.16843	469.43242	     -2.9098	    -0.25391	    3.25524	     0.16624	     0.23977	     2.25478	  -0.2136383	   -1.023248	  -0.2983467	   -0.406678	    -0.655014	   -0.4675534	     2.232004	   -0.1321148	    -0.166916
 1	1	29919	5	  1	2	   0.278739	      452	    116.8	    568.8	  0.3758019	 747.88636	101.94705	848.61958	    -3.77114	   -0.157922	  -0.668802	     2.33108	    0.479004	     3.95548	   -0.497628	 -0.03420808	    -1.08022	   -0.853484	     0.184306	    -0.655548	   -0.7030026	      1.25088	    -0.374532
 1	1	29991	5	  1	2	   0.171766	    212.8	    174.4	    387.2	  0.1269571	 269.57225	196.02755	462.02511	    -3.22242	    -0.47577	  0.3308394	  -0.0903178	     1.79756	     3.80032	   -0.511472	  -0.6308832	   -0.138939	    -1.17258	      0.57792	    -0.987206	   -0.3000196	    -0.229264	        0.625
 1	1	91299	5	  1	2	  0.2006354	      294	    199.6	    493.6	  0.3079733	 397.91205	138.09707	505.40162	    0.423676	      4.0177	   -2.90484	   -0.477268	    0.540852	    0.182504	    -2.08254	    1.756814	   -0.316052	     -1.0351	       0.6062	      1.93516	    -1.148036	    -0.793352	    -0.494228
 1	1	91929	5	  1	2	   0.230258	    344.8	     93.2	      438	  0.1229833	 295.84658	104.73395	393.00127	    0.091767	     4.21386	  0.0785634	    -1.99534	    0.502622	   -0.256582	     -1.7017	  -0.2433879	      1.5963	    -0.60557	   -0.1648188	      2.51214	     -0.16479	    -0.399076	   -0.1029228
 1	1	91992	5	  1	2	    0.36494	    533.2	    277.2	    810.4	  0.1861585	 337.87157	297.79725	618.29508	     0.21866	     3.39164	  -0.162512	   0.2171642	    -1.60288	   0.0395464	    -1.58594	  0.08671042	    0.172672	     1.29974	    0.2582036	      1.80572	  -0.07579346	     0.389864	    -0.303174
 1	1	92199	5	  1	2	  0.0763332	    142.4	    310.8	    453.2	 0.06253759	 98.258842	236.64995	273.00037	   -0.658746	    -3.17732	     3.3785	   -0.445012	    0.002158	    0.306788	     2.07768	   -1.917284	  -0.1507881	  -0.4103444	     -0.35198	    -1.099606	     1.461208	    -0.595814	    -0.408192
 1	1	92919	5	  1	2	   0.638848	    284.8	    131.2	      416	  0.5496705	 201.81477	113.36313	215.04883	   -0.680262	    -3.33178	  -0.193892	     1.85876	      0.2536	    0.962534	     1.89546	  -0.1457994	   -0.866808	   -0.505072	     0.282302	     -1.43626	   -0.3396846	     0.991938	    -0.251478
 1	1	92991	5	  1	2	  0.3967946	    305.6	    137.2	    442.8	  0.3224496	 277.46495	142.66464	385.36113	  -0.5931828	    -4.04882	 -0.3091598	   0.0992166	     2.17954	    0.723702	     2.19966	  -0.0561654	  -0.0008404	    -1.05888	    0.1305527	     -1.84912	   -0.3653168	      0.09839	     1.120658
 1	1	99129	3	0.6	2	    0.63253	781.33333	243.33333	1024.6667	  0.3471075	 337.32082	228.73857	561.35669	  -0.2808074	 -0.07537167	     3.2619	   -2.535467	     0.17474	    -0.44986	  -0.1897067	   -1.119261	    2.318933	    -0.34149	   -0.7306333	   -0.2650667	      2.14264	   -0.2164767	   -0.1667867
 1	1	99192	4	0.8	2	    1.69465	     2574	      255	     2829	  0.8111069	 1887.0132	266.38068	2087.4204	   0.2208975	   0.2198975	     2.9035	  -0.1424805	    -2.24725	     1.16135	  -0.3446022	   -1.376832	    0.229615	    1.580525	      1.38225	    -0.124709	     1.526668	     0.087143	     -0.66673
 1	1	99219	5	  1	2	  0.4882222	    910.8	    120.4	   1031.2	  0.5549033	 1446.5715	55.089019	1427.3728	    -0.46785	   -0.444974	   -4.00222	     1.99672	    0.543162	    0.994698	   -0.654292	    3.156366	   -1.038098	   -0.803012	     0.526828	    -1.099284	    -0.845836	     0.958584	     -0.25981
 1	1	99291	4	0.8	2	   1.070112	     2384	      224	     2608	  0.7585988	 2900.7875	172.96628	3071.7921	   0.6250675	   -0.245945	  -2.596375	   0.3058775	    2.025775	   -1.179925	  -0.6155825	    1.847107	   -1.019833	   -1.094725	   -0.5548725	   -0.8615525	   -0.7492677	   -0.7139525	     0.931095
 1	1	99912	5	  1	2	   1.011776	    757.6	      152	    909.6	  0.2069638	 303.99474	28.319605	312.80473	    -0.45616	  -0.3506862	  -0.413514	     2.52644	    -1.86934	    0.827428	   0.0175508	   0.9228652	   -0.715134	     1.43998	    0.3712624	    -0.333136	    0.5093328	      1.81134	    -0.429488
 1	1	99921	4	0.8	2	  0.3654675	    477.5	      118	    595.5	  0.1295175	 177.70669	90.465463	227.86765	  -0.4458166	    -0.46224	 -0.5469225	   -2.768875	      2.2055	   0.1178208	     -0.2877	    -0.41285	    1.697125	     -1.5515	    -0.327963	   -0.7499475	   -0.9597735	     -1.07175	     0.653995
 1	1	22999	5	  1	2	  0.1358748	    104.8	      216	    320.8	   0.112744	 65.781456	142.94754	142.97272	    -3.43344	    -3.65098	  -0.368606	   0.0979704	    0.364752	      2.8797	      2.4489	  0.09279698	  -0.0551208	    -0.46026	    -0.553662	    -1.202076	   -0.2757998	    0.0428388	  -0.09547414
 1	1	29299	5	  1	2	  0.4703506	    389.6	    185.6	    575.2	  0.5392874	 592.23543	145.54999	646.49145	    -2.84284	  -0.4283286	   -3.79156	  -0.1632356	  -0.0787378	     3.69894	    -0.27005	    3.122796	  -0.0610052	  -0.0414186	     0.856132	     -0.69839	   -0.6687812	    -0.224244	   -0.1202072
 1	1	29929	5	  1	2	   0.563134	    528.8	    271.2	      800	  0.6526499	 641.06568	195.00564	824.20022	    -2.66846	  -0.2265476	   -0.43226	    -2.39044	    0.045514	     2.73074	   -0.316266	  -0.3113766	     1.65712	     -0.5741	    0.0622962	    -0.542842	   -0.7436378	     -0.73334	    -0.528588
 1	1	29992	3	0.6	2	    1.32113	     1430	223.33333	1653.3333	   1.250707	 1406.2731	79.431312	1481.0811	   -3.393433	   0.2303833	 -0.2228507	  -0.4517133	   -2.388567	    2.396533	    -0.61013	  -0.5398883	 0.008801333	    1.790867	     -0.99687	   -0.3797187	   -0.7627433	     -0.44292	   -0.5976833
 1	1	92299	5	  1	2	   0.088109	       74	    237.2	    311.2	 0.03252263	 9.8994949	123.23636	  120.005	   0.1403996	     -3.1425	   -3.35098	   -0.394524	    0.298352	   0.3019592	     1.82986	    1.980888	   -0.286636	   -0.737028	     0.442334	    -1.312674	     -1.37009	    -0.681172	    -0.438638
 1	1	92929	5	  1	2	  0.1888604	    152.4	    166.4	    318.8	   0.152997	 135.57581	157.64771	243.84257	   -0.225784	    -3.94892	   0.173388	    -2.02332	    0.208896	    0.735342	     2.48644	  -0.3580057	     1.15708	   -0.538088	     0.509588	      -1.4625	   -0.1845966	    -0.866274	     -0.32922
 1	1	92992	5	  1	2	   0.318712	    334.8	    281.6	    616.4	   0.154593	 294.32839	 226.2892	508.03228	   -0.718874	    -3.40926	   -0.34828	    0.227041	    -2.01006	    0.620372	      1.9802	  0.08442738	    -0.71987	     1.55632	   -0.0985156	     -1.42908	   -0.2638522	    -0.492856	    -0.453772
 1	1	99229	5	  1	2	  0.1581306	    148.4	     52.8	    201.2	 0.06841164	 176.53555	32.298607	196.77703	   0.0506626	    0.004574	   -3.43638	    -2.08884	    0.492674	   0.2013484	   -0.483142	    1.903322	     1.54854	   -0.820642	    0.2520018	    -0.478546	    -1.533048	    -0.540298	     -0.32797
 1	1	99292	5	  1	2	   0.664076	      680	    282.4	    962.4	  0.3142436	 413.05932	259.91306	655.96707	    -0.51133	    0.040871	   -3.07542	  -0.1296828	    -1.80684	     0.16591	  -0.2961058	    3.179476	   0.4759964	    1.302858	   -0.3453984	   -0.2552136	    0.1040315	    0.3463022	    -0.503972
 1	1	99922	5	  1	2	  0.3973608	    583.6	      168	    751.6	  0.3964442	 996.50028	98.397154	1074.8743	  -0.0720032	   -0.218324	  0.0190642	    -2.34544	    -2.06202	   -0.347076	   -0.365566	 -0.09206474	     1.82388	     1.89798	    -0.419066	    -0.583892	  -0.07297776	     -0.52159	    -0.164094
 1	1	11199	5	  1	3	    0.82627	      588	    159.2	    747.2	  0.3752048	 256.73722	107.09435	267.03783	     2.72396	     2.82646	     3.2662	   0.1222525	    0.333736	    0.490224	    -1.34284	   -1.569014	   -0.370404	   -0.597198	       3.2142	      1.48364	     1.697176	     -0.24817	    -0.263418
 1	1	11919	5	  1	3	   1.094416	    670.8	    134.4	    805.2	  0.9502346	 730.95773	24.633311	733.77599	     3.71542	     3.27824	  -0.294953	     1.75124	    0.554092	   -0.770724	    -1.80676	   0.0443766	    -0.81695	   -0.762062	      2.94466	       1.4715	   -0.2505781	     0.934286	    -0.207974
 1	1	11991	4	0.8	3	    0.58395	    339.5	      201	    540.5	  0.3902943	 390.73734	215.39731	605.08154	      2.8506	    3.322225	 -0.1255202	  -0.1954275	    1.926425	   -1.458575	   -1.805675	  0.04957493	  -0.8392275	  -0.7522625	      1.39205	      1.51654	     -0.07595	    -1.034702	     1.174175
 1	1	19119	5	  1	3	    1.89806	   2042.8	    164.4	   2207.2	  0.3115692	 796.82696	 103.3286	771.34765	     2.89322	   -0.480144	    2.89798	     1.77578	     0.61463	     -2.8205	  -0.2738154	     -1.1728	  -0.1156826	   -0.542918	     0.072747	    -0.753964	     1.725168	       1.6601	    0.0717038
 1	1	19191	4	0.8	3	   1.416425	    808.5	    164.5	      973	  0.2824724	  397.6879	113.08257	486.56757	      2.9517	   -0.337225	   3.201425	  -0.3664292	     1.83915	    -1.59155	  -0.1055135	    -1.34401	  -0.4256875	   -1.163225	     1.360117	     -0.44275	     1.857447	   -0.7921275	     0.675885
 1	1	19911	5	  1	3	    1.28991	   1119.2	    136.8	     1256	  0.3279841	 535.20762	68.623611	511.25727	     2.41118	  -0.1465144	  -0.383586	     1.63914	     1.94246	   -0.745062	  -0.4483674	   0.1909108	    -1.49086	   -0.994078	      1.66608	    -0.594846	   -0.1926662	    0.1482816	      0.94837
 1	1	91119	5	  1	3	   0.608388	    651.6	    165.6	    817.2	  0.3494986	 552.00072	203.69291	523.43596	  -0.2227308	     3.19738	    3.84256	     1.62604	   0.1564592	    0.564136	     -1.5417	   -1.746916	  -0.0193196	   -0.514356	     0.341378	      1.65568	     2.095612	      1.60672	     -0.35789
 1	1	91191	5	  1	3	   0.799886	    735.6	    185.6	    921.2	  0.3159133	 746.35702	 188.8036	920.29082	   0.4243856	      3.5779	     3.4828	   -0.057417	      1.8467	    -0.66821	    -1.58952	   -1.196294	   -0.073715	   -0.859678	   -0.2438226	      1.98836	     2.286494	   -0.1311076	     0.987038
 1	1	91911	5	  1	3	  0.4641044	    481.6	      168	    649.6	  0.3102583	 623.05923	105.57462	726.00606	   -0.272106	     3.26858	 -0.0950822	     1.68768	     1.83302	    0.906582	     -1.6537	   0.3527786	   -0.657322	   -1.024458	     0.634462	     1.614854	    0.2576924	     1.030348	     0.808594
 1	1	99111	3	0.6	3	  0.6151387	      544	235.33333	779.33333	  0.6235101	 426.25345	205.25431	620.15912	 -0.06160033	  -0.4272933	     3.5521	    2.750267	      1.6287	    -0.37851	  -0.1451043	   -1.585993	   -1.605433	     -0.8325	   -0.4401467	     -0.57242	     1.966107	      1.14487	    0.7961333
 1	1	11299	5	  1	3	   0.563305	    439.2	    246.4	    685.6	  0.5205256	 302.43875	238.67719	 528.5043	     2.73404	     3.16468	   -3.54632	    -0.55996	   -0.315188	   -0.283812	    -1.76086	    2.223987	  -0.1616206	 -0.08789046	      2.45024	      1.40384	    -1.322359	    -0.721594	    -0.403042
 1	1	11929	5	  1	3	   1.101818	   1199.2	    176.4	   1375.6	  0.6907149	 824.65217	98.867588	868.08917	     2.80416	     2.78074	 -0.4054346	    -2.14258	    -0.24396	   -0.734554	    -1.47698	   0.6136646	     1.45592	    0.104889	      2.06966	     1.303732	    0.2082324	     -0.68667	   -0.1390574
 1	1	11992	5	  1	3	    1.72792	     1290	     94.8	   1384.8	  0.3334237	 644.82091	57.299215	 626.0393	     3.62902	     2.89208	  -0.235796	  -0.2997604	    -1.70474	    0.533938	    -1.80042	    0.008031	 -0.03497504	      1.2753	        4.163	     1.091706	   -0.2277692	    -0.334724	     -0.42951
 1	1	12199	5	  1	3	  0.3849914	    306.8	    344.4	    651.2	  0.3216636	 212.26681	292.87335	370.58224	     2.88086	    -3.97636	    2.85436	     0.43976	  -0.0400982	   -1.178216	     3.15262	  -0.0796192	   -0.250202	 -0.00157712	      1.70262	    -0.823688	     2.774748	    0.1895726	  -0.04162834
 1	1	12919	5	  1	3	    1.24178	   1029.2	    176.4	   1205.6	  0.6718669	 1111.6983	109.08162	1217.6103	     3.49088	    -3.16786	   -0.55252	     2.37986	   0.5592212	    -0.34702	     1.82582	  0.07919456	   -0.838208	   -0.663106	       3.1439	     -1.34208	    -0.473334	      1.54164	   -0.1038486
 1	1	12991	5	  1	3	   1.614472	   1579.2	    110.4	   1689.6	  0.5741606	 1381.2332	58.590102	1349.6321	      3.1129	    -2.93648	  -0.152056	    0.499806	     1.69068	  -0.2422344	     1.98824	    0.162814	   -0.467918	   -0.914548	      2.87066	    -0.948256	   0.01075686	   0.03189945	      0.77613
 1	1	19129	5	  1	3	     0.7203	    699.2	    175.2	    874.4	   0.225715	 728.74495	167.42521	877.33734	     2.57896	  -0.1046466	    2.72414	    -1.94468	  -0.0106544	   -0.647364	   -0.391472	   -1.428404	    1.090738	  -0.0930274	      1.93158	    -0.496078	     1.295762	    -0.853936	    -0.103645
 1	1	19192	5	  1	3	   0.901542	      834	    241.2	   1075.2	   0.618554	 587.16267	246.89107	727.61748	     3.72442	   -0.391832	    3.02506	  -0.1108586	    -2.02432	  0.03653746	   -0.387332	   -1.564014	  -0.0862326	     1.46572	      3.76094	    -0.779152	      1.46104	   -0.1970842	    -0.558594
 1	1	19219	5	  1	3	   1.075332	    720.4	      152	    872.4	  0.8987437	 571.57222	130.58331	685.66377	     2.80182	       0.001	   -4.13938	     1.99234	   0.4683837	   -0.283546	   -0.665888	    3.668812	     -0.9692	   -0.797944	      2.51828	    -0.664876	   -0.4705356	     1.023112	     -0.32949
 1	1	19291	5	  1	3	   0.890352	   1265.6	    216.4	     1482	  0.5276691	 1265.8834	214.22605	1387.1532	     3.14854	  -0.3929868	   -2.74482	  -0.1596192	     1.78412	   -0.979108	  -0.0599914	    2.286892	   -0.408432	   -0.856628	      2.16942	    -0.452978	   -0.4579404	    -0.568064	     0.927474
 1	1	19912	4	0.8	3	   1.598895	     1526	    193.5	   1719.5	  0.6402963	 724.82458	133.65004	801.71712	    2.711975	     0.25141	 -0.3448025	      1.7224	    -2.27935	    0.275573	  -0.6809425	   0.3050409	  -0.1182875	      1.6127	      2.98755	    -0.429559	  -0.03975775	     1.604125	     -0.66667
 1	1	19921	5	  1	3	   0.889868	    898.8	       76	    974.8	  0.7326984	 958.94171	51.826634	976.73395	      2.8977	  -0.1250699	  -0.316864	    -2.15472	     2.00074	   -0.477648	   -0.357371	  -0.1734846	    1.000222	    -1.24068	      2.42002	    -0.482438	   -0.4903272	      -1.1545	      0.76006
 1	1	21199	5	  1	3	   0.649618	      446	    122.8	    568.8	  0.5978993	  502.7743	42.251627	543.95331	    -2.65318	     3.74038	    3.58514	   0.0721528	     0.28198	     1.45262	    -1.63796	   -1.317854	  -0.2590554	   -0.448722	      -1.2005	       2.1024	     2.267296	    -0.186879	    -0.166758
 1	1	21919	5	  1	3	   1.167586	     1800	      178	     1978	   0.857541	 1175.8988	124.09674	1215.6949	    -3.19284	     3.05904	   -0.57921	     2.31716	    0.509882	       3.694	    -1.80534	  0.09008008	   -0.813076	   -0.819294	     0.501148	     1.253712	   -0.4891222	      1.50404	     -0.30938
 1	1	21991	5	  1	3	   0.821726	     1136	      182	     1318	  0.3326838	 889.62239	180.42727	1014.7699	    -2.45872	     2.85472	  -0.188002	   -0.369948	     1.93924	     2.11608	    -1.65344	 -0.05305926	  -0.0817088	    -1.15792	     -0.34264	     1.201308	   -0.2410751	    -0.451664	     0.781296
 1	1	29119	4	0.8	3	  0.5985265	    425.5	      150	    575.5	   0.464107	 301.86697	98.657657	 379.3903	   -2.884425	  -0.0449475	    3.66195	    2.193025	   0.3937875	    1.683825	  -0.5246275	   -1.302353	  -0.0020975	  -0.5122275	     -1.20055	    -0.569575	      2.35956	     2.190925	   -0.1184723
 1	1	29191	5	  1	3	     1.0892	   1015.2	      336	   1351.2	  0.5705858	 489.76852	301.45646	505.22787	    -2.78444	   -0.181224	    3.16128	   -0.185238	      1.9965	     2.48864	  -0.0973854	   -1.391352	   0.2293908	   -1.013148	    -0.295724	   -0.2785986	     1.769898	    0.0441562	     0.983342
 1	1	29911	4	0.8	3	  0.6592025	    882.5	    162.5	     1045	  0.3532599	 742.79181	60.097144	794.53215	     -3.0173	  -0.3208638	  0.3425932	       1.803	    1.505725	     3.23805	  -0.1593398	  -0.2030679	    -1.15025	  -0.7820325	    0.2207275	     -0.48021	    0.1395164	    0.6527175	      0.72366
 1	1	91129	5	  1	3	   0.559054	    351.6	    210.8	    562.4	  0.4849474	 473.46679	79.165649	498.06305	  -0.0302768	     3.27142	    2.82358	       -1.88	    -0.42577	    0.822746	    -1.79312	   -1.777516	     1.35176	  -0.0678316	      0.79249	     1.478302	      1.04608	     -0.52828	    -0.493614
 1	1	91192	5	  1	3	  0.9311282	      522	    184.4	    706.4	  0.8232642	 409.16745	81.650475	476.73347	   0.1617156	     3.43698	    3.04534	   0.1442042	     -2.2569	     1.21972	    -1.77302	   -1.693708	    -0.27712	     1.67536	     1.381446	      1.66398	     1.351635	    -0.132918	     -0.58156
 1	1	91219	5	  1	3	   0.328435	    165.6	    221.6	    387.2	   0.283885	 91.634055	65.565235	108.10735	    0.377888	     3.03152	   -3.98474	     2.14294	    0.612772	    -1.14128	    -1.63664	    3.179826	    -1.40134	   -0.585588	    -0.763408	      1.39488	   -0.8049306	     0.741618	   0.02723074
 1	1	91291	5	  1	3	   0.869794	     2220	    267.2	   2487.2	  0.9270379	 3522.1405	164.93999	3667.4879	   0.2876956	      3.4891	   -2.53326	  -0.2646568	     1.83124	   -0.967464	    -1.55954	      1.8338	   0.0147332	     -0.7025	    -0.679802	     1.929606	   -0.6994524	   -0.2499126	     1.128772
 1	1	91912	5	  1	3	   1.220222	   1304.4	    185.6	     1490	  0.5530946	 1386.9055	207.29882	 1593.488	   -0.008726	     3.58638	   -0.45034	      2.2668	    -1.83284	    0.850982	    -1.68768	   0.5480028	   -0.676326	     1.41562	     0.842246	      1.89866	   0.09766096	      1.59044	     -0.41731
 1	1	91921	5	  1	3	   0.950314	   1339.2	    263.6	   1602.8	  0.5504593	 1278.2438	226.25826	1492.4963	     0.16059	     2.68234	   0.149594	    -2.31772	     1.58842	    1.078332	     -1.4504	   -0.242123	     2.83902	   -0.841632	     1.238942	     1.231948	  -0.09255336	     0.521302	     0.746824
 1	1	92119	5	  1	3	  0.5387366	    448.8	    141.6	    590.4	  0.3423136	 335.19726	150.26909	367.02153	    -0.55983	     -4.5217	    2.71294	     1.76904	    0.187192	    0.438342	     2.85362	   -1.559952	   -0.643388	    -0.46801	   -0.1215186	     -1.66808	     1.152963	     1.125672	    -0.280818
 1	1	92191	5	  1	3	   1.086206	    667.6	    208.4	      876	  0.6230368	 518.58153	73.897226	539.61838	   -0.863034	     -2.8256	    2.77988	  -0.1924106	     1.98488	     0.78038	     2.30504	   -1.188148	   -0.355502	    -1.14052	  -0.08267908	   -0.5205422	     1.591706	    -0.547926	     0.844368
 1	1	92911	5	  1	3	   0.559916	    813.2	    103.2	    916.4	  0.2210385	 578.16537	38.304047	574.48133	    -0.27677	    -3.43424	  0.3944212	     1.79464	     1.60304	    1.021494	    1.724486	  -0.2813936	   -0.849398	    -1.02977	       0.7447	      -1.7097	    0.1129929	      0.94524	     0.573282
 1	1	99112	5	  1	3	   1.145124	   1936.4	    146.8	   2083.2	  0.4518775	  1740.187	130.34263	1776.6596	   -0.724878	  -0.3410034	    3.00128	      1.8648	    -1.74682	    0.761762	   -0.402852	    -1.46192	     -1.1254	     1.50244	    0.0369128	    -0.743854	     1.539344	     0.739396	    -0.244428
 1	1	99121	5	  1	3	    0.91565	     1506	    205.6	   1711.6	  0.6008363	 1522.6654	329.30654	1802.8746	     -0.3684	  -0.4229354	    3.01814	    -2.29882	     1.64574	     0.62641	 -0.09328446	   -1.276828	      2.4053	   -0.783022	    0.2579972	    -0.516228	     1.741302	     0.106464	     0.862772
 1	1	99211	5	  1	3	    0.75115	   1239.2	    282.4	   1521.6	  0.3596047	 1263.0032	310.92893	1223.6555	   -0.207938	  -0.2901362	   -3.42366	        1.69	     2.44936	   -0.190284	    0.864132	    3.082942	     1.58826	   -0.523662	     -0.39821	     0.573988	   -0.3407292	      3.27824	       1.9257
 1	1	12299	4	0.8	3	  0.5668225	      249	      145	      394	  0.4565383	 214.17438	130.28686	343.39482	      3.1991	   -3.184425	   -3.84995	 -0.00405125	    0.577165	     0.57968	     1.38205	    2.919935	    -0.34123	    -0.88778	     3.778825	    -1.802325	   -0.9300148	   -0.3452375	   -0.3105475
 1	1	12929	5	  1	3	   0.726474	      878	    176.4	   1054.4	  0.5553501	 985.10609	157.55253	1090.5378	      3.3444	    -3.36402	  0.2367606	    -2.38634	    0.397136	  -0.2653478	     2.00556	  -0.3120428	     1.39908	   -0.641914	      3.07906	    -1.358468	   -0.0752954	    -0.987248	    -0.244752
 1	1	12992	5	  1	3	   0.536398	    320.4	    181.6	      502	  0.3225549	 160.35835	147.13531	275.25624	      4.0836	    -3.09318	  -0.157894	   -0.294594	    -1.91708	  -0.2130592	     1.87954	  -0.5275402	    -0.35499	    1.250434	      3.87054	    -1.213648	   -0.6854336	    -0.649618	    -0.666664
 1	1	19229	4	0.8	3	    0.54301	      666	    236.5	    902.5	  0.1613352	 309.24855	88.202419	260.24796	    3.401825	   0.1462538	   -3.30885	   -2.274675	   0.3812925	   -1.357775	  0.01365025	     2.44341	      1.9061	    -0.46407	       2.0441	    0.1599125	   -0.8654278	   -0.3685875	   -0.0827705
 1	1	19292	5	  1	3	   0.954378	   1059.2	    238.8	     1298	  0.5284186	 940.47499	204.60987	933.82439	     3.49354	   0.1102852	   -2.95806	   0.0190074	    -2.22648	    -2.52438	   -0.394238	    2.714048	  -0.0762953	      2.0599	     0.969188	   -0.2839654	   -0.2440216	   -0.0572709	    -0.166584
 1	1	19922	5	  1	3	   0.863883	   1169.6	      154	   1323.6	   0.887462	 1650.9097	136.11025	1782.7178	       3.229	  -0.1065612	 -0.4540186	    -2.63612	    -1.69162	  -0.0928652	    -0.59383	  -0.3628064	    1.515678	    1.025118	      3.13612	    -0.700374	    -0.816792	    -1.120448	    -0.666524
 1	1	21299	3	0.6	3	    0.81956	      636	247.33333	883.33333	  0.3839325	       418	260.61722	278.57016	   -2.748433	    3.706733	  -2.808633	  -0.5246167	   0.3981533	      3.1686	   -1.737433	    2.066493	  -0.1105103	  -0.8494367	      0.42018	     1.969333	   -0.7421877	     -0.63516	   -0.4512633
 1	1	21929	5	  1	3	   0.526594	    754.4	     46.8	    801.2	  0.2834496	 589.89897	38.042082	598.86827	    -3.19992	     2.96218	   0.740498	     -2.2968	 -0.01004906	     3.12806	    -1.61516	  -0.6726644	     1.99684	   -0.497782	   -0.0718338	      1.34704	   0.06783816	   -0.2999798	    -0.507802
 1	1	21992	5	  1	3	    1.32739	     1126	      136	     1262	  0.5857045	 456.56763	138.85964	470.38282	    -3.71636	      2.4585	   0.338918	   0.1804764	    -1.63408	     4.90978	    -1.61866	  0.06790722	  -0.2297902	     1.25742	     1.193468	     0.839836	    0.4068196	   -0.0493273	    -0.376708
 1	1	22199	5	  1	3	   0.377958	    253.2	    203.6	    456.8	  0.1698835	  125.0088	160.43316	268.85907	    -2.87386	     -3.3933	     4.3218	  -0.2150378	    0.134118	      2.5947	     1.87656	   -2.180834	 -0.04843534	   -0.424624	   -0.2791612	     -1.51674	     2.140972	   -0.2634742	    -0.290524
 1	1	22919	4	0.8	3	    0.87029	      931	      260	     1191	  0.1999646	 342.65434	66.833126	320.18536	     -2.8327	    -4.07085	  0.0837805	     1.91365	  0.02837315	    1.385725	    2.193625	  -0.3393708	    -0.93267	    -0.44594	       -1.447	    -1.877225	   -0.2555868	      0.98101	    -0.417545
 1	1	22991	5	  1	3	   0.884456	    924.4	    181.2	   1105.6	   0.489379	  435.1101	88.584423	 479.0144	    -2.79772	      -4.191	 -0.0416304	    0.313938	     1.58516	     2.51038	     2.48976	  -0.3225167	   -0.667822	    -1.07436	   -0.2873528	     -1.70134	   -0.3641758	    -0.353888	     0.510802
 1	1	29129	5	  1	3	  0.4362246	      480	    105.2	    585.2	  0.4761828	 699.89142	13.160547	694.45893	     -3.9316	  -0.1083646	    3.25762	    -1.89194	  -0.1468894	     4.59482	    -0.69802	     -1.8757	     1.73476	   -0.438822	       0.6632	    -0.806402	     1.381932	   -0.1572012	    -0.585698
 1	1	29192	5	  1	3	   0.982472	   1011.2	    252.4	   1263.6	   0.265945	 516.79706	 102.5807	582.55884	    -2.71176	   -0.031044	    3.48494	 -0.04184914	    -2.49628	     2.04918	   -0.739556	   -1.679364	  -0.0182858	     1.88462	    -0.662586	    -0.770598	      1.80558	    -0.060127	    -0.611712
 1	1	29219	5	  1	3	   0.624616	    993.2	      166	   1159.2	  0.5094228	 1795.5521	221.15153	 2011.709	    -2.89218	   0.3511996	   -3.19024	     1.94356	    0.421702	     1.69164	   -0.692076	    2.977306	   -0.552382	   -0.498576	     -1.20048	    -0.340874	   -0.2129508	      1.39116	   -0.0768594
 1	1	29291	5	  1	3	   0.571064	   1347.2	    169.6	   1516.8	  0.7919588	  2519.418	  160.015	2677.1498	    -2.90618	    0.529852	   -3.85098	   0.0548288	     1.61434	     3.64944	   -0.929378	    3.716816	  -0.0759944	   -0.985862	     0.743274	    -0.399548	   -0.1341693	   -0.0211742	     0.628446
 1	1	29912	5	  1	3	   0.664998	      400	    281.6	    681.6	  0.3055043	  256.5385	263.36818	433.77275	    -3.94784	      0.2072	   0.450708	      2.3813	    -2.23606	      3.8274	 -0.07646168	   0.2082296	   -0.625386	      1.6648	   -0.1204342	    0.1307476	    0.6589386	       1.7559	     -0.57127
 1	1	29921	5	  1	3	  0.5795792	    674.8	     85.2	      760	  0.7123141	 688.14185	37.218275	673.51021	    -2.91948	   0.0908654	  -0.316856	    -2.65262	     2.05986	     2.50766	   -0.337078	  0.06553932	      1.6685	    -1.08678	    -0.411792	   -0.2462258	   -0.2513122	    -0.984136	     0.973064
 1	1	91229	5	  1	3	  0.4515122	      248	      182	      430	  0.6598763	 214.26619	179.94999	392.82057	   0.0704694	     3.87758	   -2.78078	    -2.24316	    0.240472	    -0.47435	    -1.65826	    1.851964	     2.17524	   -0.407224	    -0.403886	      2.21932	   -0.9287996	    -0.067901	    -0.166772
 1	1	91292	5	  1	3	   0.723236	    906.4	    150.8	   1057.2	  0.3985184	 593.27464	31.704889	588.55518	   -0.119956	     3.04566	   -2.81766	  -0.0607166	    -1.99658	    0.809962	    -1.66806	    2.392338	    -0.17365	     1.40954	     0.690028	     1.377616	   -0.4252696	    -0.234368	    -0.586976
 1	1	91922	5	  1	3	   1.026976	   1538.4	    160.8	   1699.2	  0.3417562	 870.88851	 36.07215	854.02881	    0.425872	     2.84832	   0.461284	    -2.42864	    -1.79514	   0.0018798	    -1.48818	  0.05597844	     1.83704	     1.41206	     0.427724	      1.36016	    0.5172812	    -0.591578	    -0.383112
 1	1	92129	5	  1	3	   0.435188	    324.8	    130.4	    455.2	  0.3419556	 328.33093	56.610953	378.81288	  -0.1821964	    -2.99664	    3.23478	    -2.31432	   0.1189588	   0.2282316	     2.23104	   -1.664836	      1.5157	   -0.287012	    0.0460302	    -0.765582	     1.569956	    -0.798636	    -0.168026
 1	1	92192	5	  1	3	   1.009248	   1287.6	    289.2	   1576.8	  0.6872966	 1062.6706	377.54099	1265.7153	  -0.0329104	    -3.05468	    3.66458	   0.0857856	     -1.8984	   0.1914158	     2.23636	   -1.352412	  -0.0609674	     1.73158	      0.15851	    -0.818348	     2.312202	    0.0248184	    -0.166864
 1	1	92219	5	  1	3	   0.691238	   1317.6	    207.2	   1524.8	  0.5708842	 1667.9535	284.05844	1920.0191	    -0.37632	     -3.1732	     -2.868	     1.82954	   0.3540358	      0.7431	     1.70588	    2.037694	    -0.04035	   -0.736718	    0.3667478	     -1.46732	   -0.8303222	      1.78916	     -0.38265
 1	1	92291	4	0.8	3	    0.91328	    934.5	      141	   1075.5	  0.4597918	  930.6161	86.294071	897.49336	   0.4701818	   -3.234475	  -3.938475	   0.3632025	     2.06755	    -0.61182	      2.1169	    3.665948	  -0.2638475	     -0.7665	   -0.1416507	     -1.11755	   -0.2725341	     0.099355	      1.30104
 1	1	92912	4	0.8	3	    1.65588	   2312.5	    305.5	     2618	  0.8577914	 2320.2025	534.16695	2825.0711	   -0.251859	   -3.056275	 -0.0066425	       1.743	   -1.726175	      1.1042	     1.90965	     0.56479	  -0.5919725	     1.05946	      0.85236	    -1.146635	    0.5581475	      1.15102	   -0.6666825
 1	1	92921	4	0.8	3	  0.4530325	      520	    122.5	    642.5	  0.3838637	 528.40641	 77.22478	489.22081	   -0.286225	    -2.92955	  0.3420675	   -1.883425	     1.60245	    1.015373	     1.66755	  -0.1063366	     1.96935	   -1.116175	    0.7291675	    -1.262025	    0.2357374	   0.08591175	    0.4862575
 1	1	99122	5	  1	3	   1.006028	     1148	    231.2	   1379.2	  0.4193808	 779.15595	200.17792	869.07606	   -0.810792	   0.3997348	     3.7219	     -2.8796	    -1.61512	    0.822502	  -0.7194618	    -1.52972	      1.8394	      1.1857	   0.01175634	   -0.3197302	     2.192176	     -1.04018	    -0.429548
 1	1	99212	4	0.8	3	   0.705575	      931	      340	     1271	  0.4228419	 779.83332	259.82045	969.03732	  -0.0665465	   0.0215775	   -3.59405	      1.7814	    -1.66385	   0.2987375	  -0.2078045	    3.931355	    -0.64633	    1.344475	     0.232157	    -0.186229	    0.3372918	      1.13505	   -0.3193775
 1	1	99221	5	  1	3	   1.122535	    764.4	    197.6	      962	  0.9090048	  590.3582	184.18143	 592.2415	   0.4084816	    0.106742	   -3.35092	    -2.04494	      1.8559	   -0.602376	   -0.509512	    2.948434	     1.95268	   -0.740194	    -0.193918	     -0.40276	   -0.4024664	   -0.0922926	     1.115688
 1	1	22299	5	  1	3	   0.494148	    277.2	    137.6	    414.8	  0.3493098	 168.36033	60.949159	191.90935	    -3.03132	    -3.76796	   -3.37048	    0.198588	    0.284284	        3.15	     2.23722	    2.335718	   -0.860824	    -0.32522	    0.1186216	     -1.53076	     -1.03478	    -0.662212	   -0.0409068
 1	1	22929	5	  1	3	   0.789828	    514.8	    176.8	    691.6	  0.6126386	 559.90106	116.60703	673.53159	    -3.17158	    -2.99202	  0.1530501	    -2.31024	    0.285246	     2.01072	     1.90906	  -0.1289201	     2.08958	   -0.451932	     -1.16082	    -1.082936	   0.02413164	   -0.2206724	     -0.16672
 1	1	22992	5	  1	3	  0.3026336	    357.6	    237.6	    595.2	  0.3042918	 571.75239	192.62087	752.87263	    -2.82222	    -3.84224	  0.2784415	    -0.39221	    -2.13866	     1.88408	     2.05628	  -0.5254796	  -0.1865406	     1.52694	    -0.938132	     -1.78594	   -0.2470565	    -0.578758	     -0.61172
 1	1	29229	5	  1	3	   0.715056	    413.2	    163.6	    576.8	  0.7654611	 392.77882	110.23067	460.06652	     -2.6556	  -0.1738388	   -3.05342	    -1.85782	    0.502344	     2.52646	   -0.406498	     1.83737	      1.4125	   -0.844392	    -0.129137	     -0.58034	    -1.216035	    -0.445294	    -0.342058
 1	1	29292	5	  1	3	  0.4315802	    641.2	    272.8	      914	  0.4314906	 614.20615	125.13673	662.24014	    -3.15084	  -0.6179926	   -3.32404	    0.109954	    -2.15848	     1.95014	  -0.1118786	    3.287278	  -0.1785219	     1.99174	     -1.20066	     -0.72987	  -0.03673366	   -0.0685802	    -0.166764
 1	1	29922	5	  1	3	  0.3140666	    457.6	    204.4	      662	  0.2284802	 339.25625	195.33254	427.47164	    -3.01272	   -0.285286	   0.445915	    -2.71532	     -1.6301	      2.9706	    -0.29345	  -0.5346766	     1.70116	    0.965436	   -0.0420736	    -0.578758	  -0.08876712	     -1.01421	     -0.66466
 1	1	92229	5	  1	3	   0.287535	    272.8	    176.8	    449.6	  0.2119864	  225.9407	145.82592	271.51943	    0.084745	     -2.9119	   -3.70526	    -2.10616	  -0.0542604	   -1.223356	       1.719	    2.614684	     1.70716	  -0.0517078	     -1.13856	      -1.1929	    -1.090589	    -0.399042	    -0.105957
 1	1	92292	5	  1	3	    0.49476	    568.8	     95.2	      664	  0.4187867	 940.83112	13.461055	941.65174	   -0.403402	    -3.31834	   -3.29682	  -0.0767292	    -2.19324	    0.732078	     2.17046	    2.959476	   -0.319778	      1.5816	    0.3286968	      -1.1479	   -0.3373156	    -0.396502	    -0.611692
 1	1	92922	5	  1	3	   1.636388	   2057.6	    308.8	   2366.4	  0.7322513	 1845.9953	253.05573	 2051.504	   -0.491304	    -2.98266	   0.292908	    -2.25414	     -1.7335	   0.1273986	     2.42826	   0.0765776	     1.71434	       1.567	   -0.3639208	    -0.554464	    0.3695011	     -0.53979	     -0.16654
 1	1	99222	5	  1	3	     0.8128	    693.6	    176.8	    870.4	   0.719762	 655.06244	58.113682	607.40991	  -0.6034468	   -0.311784	    -3.3322	    -2.73444	    -1.69856	    0.793242	   -0.452734	    2.885506	     2.07256	     1.11244	    0.1898402	     -0.76452	   -0.4467326	    -0.661894	    -0.586144
 1	1	11119	5	  1	4	   0.925132	    621.6	    216.8	    838.4	  0.6056666	 414.49825	186.66869	532.19057	     2.80364	     3.02994	    3.42826	     1.77612	  -0.0398014	   -0.384424	    -1.84374	   -1.867508	  -0.2884792	   -0.386456	      2.41924	     1.186214	     1.560742	      1.48764	    -0.426224
 1	1	11191	5	  1	4	    1.17681	   1783.2	    252.4	   2035.6	  0.4832445	 1926.7764	118.42635	1965.6543	     2.83482	     2.58206	     3.1556	   -0.160765	     1.87378	   -0.382728	    -1.73266	   -1.768974	   0.3739046	     -1.1453	      2.45214	     0.849402	     1.386622	      0.21314	       0.7285
 1	1	11911	5	  1	4	   1.511784	   1855.6	     89.2	   1944.8	  0.5344307	 1294.1015	36.044417	 1286.882	     3.46966	     3.32402	  0.2755932	     1.70054	     1.70926	   -0.502282	    -1.56696	   0.1135252	    -0.34654	   -0.936512	       2.9674	      1.75708	     0.389139	      1.35396	      0.77276
 1	1	19111	4	0.8	4	  0.7216775	      618	      232	      850	  0.2787771	 579.91034	250.23189	825.28541	       3.946	 -0.07776625	   2.970175	    1.713675	    1.648525	   -0.836625	    -0.25929	   -1.575012	  -0.2346225	   -0.849615	      3.10935	    -0.337065	     1.395147	      1.47905	    0.7989475
 1	1	91111	5	  1	4	   0.773294	     1374	     87.2	   1461.2	   0.323676	 961.27519	55.255769	968.98875	   -0.064063	     3.04198	    3.99168	     1.69268	     1.72218	   -1.136386	    -1.36204	   -1.129598	   0.1227898	   -0.621584	     -1.20034	      1.67994	      2.86208	       1.8155	     1.100612
 1	1	11129	5	  1	4	   1.289904	   1562.8	      278	   1840.8	  0.6870713	 1485.7137	200.99254	1517.2031	      2.5311	     3.02296	    2.80736	    -2.44786	  -0.0663578	   0.0632066	    -1.84472	   -1.424878	     1.30408	  -0.5450774	      2.59436	     1.178258	      1.38246	      -1.1438	    -0.611438
 1	1	11192	4	0.8	4	   1.672252	     1445	      307	     1752	  0.6781419	 976.21924	141.33176	1021.8258	      2.8939	      2.5914	     3.1195	     0.41485	     -2.4062	    -0.55107	    -1.42525	   -1.530485	   -0.230708	    2.059325	     2.342825	      1.16615	     1.589047	    0.1841185	     -0.34692
 1	1	11219	5	  1	4	   0.601912	    913.2	    279.6	   1192.8	  0.2724132	 1123.5147	131.76798	1130.3642	     2.47836	     2.96252	   -4.39298	     1.75486	    0.087378	   -0.797652	    -1.74034	    3.419748	     -1.4728	   -0.125402	       1.6807	     1.222196	   -0.9732594	     0.282104	   -0.0379472
 1	1	11291	5	  1	4	   0.693732	    873.2	    246.4	   1119.6	  0.3442203	 546.64175	176.99379	 629.5465	     2.69034	     2.48232	   -3.29074	   -0.119372	     1.99104	    -1.86118	    -1.75728	    2.785818	    -0.79054	    -1.09164	     0.829142	     0.725044	   -0.5049046	    -0.909908	     0.899412
 1	1	11912	4	0.8	4	   1.867275	   3922.5	    255.5	     4178	  0.3968113	 1250.0308	121.70319	1344.4949	     2.50665	     2.96115	   -0.16265	     1.70225	   -1.857325	  -0.1184117	   -1.841925	   0.3026532	 -0.09944025	      1.2455	     2.388225	      1.11922	    0.1400329	       1.6028	    -0.611805
 1	1	11921	5	  1	4	   1.248552	      614	    125.6	    739.6	  0.9558904	 364.71633	110.22159	448.25752	      2.9944	     3.00624	  -0.079534	     -2.4125	     1.65484	    -1.59174	    -1.91014	  -0.4089735	    1.522522	    -1.12694	      1.40264	     1.096116	   -0.4884982	    -0.889952	     0.527924
 1	1	12119	5	  1	4	   1.234332	   1694.4	    129.2	   1823.6	  0.5115172	 1955.1012	34.802299	1966.5129	     2.85186	    -3.28888	    3.01368	      1.6766	    0.192258	    0.321608	     1.63384	   -1.641642	   0.5238408	    -0.67832	       3.1735	     -1.65506	     1.372046	      2.20042	    -0.486056
 1	1	12191	4	0.8	4	     1.8106	     3678	    143.5	   3821.5	  0.6825157	 1953.3008	74.661458	1940.5514	    2.534975	   -2.780825	    2.71945	  -0.2825975	    1.739625	   -2.018575	    1.672175	     -1.1123	  -0.0107895	   -0.702485	     0.516395	    -1.108658	     1.607165	     -0.29341	     1.037117
 1	1	12911	3	0.6	4	  0.9597667	1123.3333	311.33333	1434.6667	  0.5502803	 357.02288	218.48875	575.20199	      2.8329	   -4.005033	    -0.3768	    1.789867	      1.8281	      -1.586	    2.269433	  -0.2391562	   -1.244433	    -0.73789	     1.246877	    -1.735567	   -0.6159637	    0.5454433	     1.090233
 1	1	19112	4	0.8	4	   2.243575	     2201	      198	     2399	  0.2747253	 697.08058	240.27207	707.15298	    2.795875	   -0.108345	    2.63215	     1.88545	    -1.81995	 -0.09513075	   -0.737945	   -1.515318	  -0.6517625	    1.260948	     2.700725	   -0.8462475	     1.116799	     1.233683	    -0.558985
 1	1	19121	5	  1	4	    1.73828	   3490.4	    263.2	   3753.6	  0.2037743	 2246.8518	165.35175	2395.7977	     2.46276	  -0.5350774	      2.656	    -1.85334	     1.86744	    -1.46276	   -0.436596	   -1.728984	     1.37124	    -1.54588	     1.000024	    -0.971668	    0.9270296	     -0.48209	     0.321524
 1	1	19211	5	  1	4	    1.65074	   1053.2	    224.4	   1277.6	  0.4257186	 432.31146	175.92271	522.42014	     2.68986	   0.0640272	   -3.05806	     1.58738	      1.8534	    -1.34106	    -0.26947	    3.020366	     -1.1539	    -1.18054	      1.34876	   -0.2054516	  -0.03768808	     0.433484	     0.672862
 1	1	21119	5	  1	4	   0.683726	    482.4	    121.6	      604	  0.3140719	 373.87271	99.853893	461.48456	    -3.63002	     3.03664	    2.74104	     1.68906	    0.376078	     4.08318	    -1.75586	   -1.535898	    -0.63436	   -0.732128	     0.453176	     1.280772	     1.205103	     1.054704	    -0.356024
 1	1	21191	5	  1	4	   1.318052	     1162	    171.2	   1333.2	  0.6199873	 1438.4665	85.599065	1437.2026	     -3.2307	     2.79132	    2.96368	  -0.0109002	     1.67182	     3.79686	    -1.52372	   -1.626748	  -0.0071074	   -0.989076	     0.566164	      1.26761	     1.336916	   -0.0179838	     0.682698
 1	1	21911	5	  1	4	   0.970226	   1034.8	    226.4	   1261.2	  0.3056817	 700.64342	166.89757	850.58874	     -3.1218	     3.19076	  -0.728928	     1.71008	     1.99304	      3.3913	    -1.71044	   0.7563192	     -0.6968	    -1.22164	    0.2694928	     1.480354	   0.02738764	     1.013286	     0.771402
 1	1	29111	5	  1	4	   0.939662	   1462.8	     92.8	   1555.6	  0.4030751	 1185.8386	20.668817	1202.1343	     -3.5121	  -0.1527598	    3.16826	     1.66326	     1.77346	     3.59842	   -0.309936	    -1.60774	    0.730322	   -0.804782	    0.0863242	    -0.462672	     1.560504	      2.39358	      0.96866
 1	1	91112	5	  1	4	   1.262724	      640	    164.4	    804.4	   0.346978	 416.14661	100.55247	504.36376	   -0.633712	      3.5169	    3.00474	     1.85358	     -1.8571	     1.40096	    -1.79408	   -1.577696	    -0.68655	     1.32022	     0.767252	      1.72288	     1.427036	     1.167008	    -0.536872
 1	1	91121	4	0.8	4	   1.302245	      848	      111	      959	  0.7209741	  754.3527	82.308363	728.62519	    0.306155	    2.852175	   2.937575	   -2.529775	    1.609175	   0.2670975	   -1.766575	   -1.609317	     1.46365	   -1.128125	    0.5732425	     1.085562	     1.328218	    -1.066125	     0.481055
 1	1	91211	4	0.8	4	   1.555943	   1274.5	      735	   2009.5	  0.8266455	 758.52027	769.59643	1393.5895	   0.0711005	     2.55675	  -3.476975	     1.94855	    2.101675	   -0.787415	    -1.57045	    2.830668	   -1.199345	    -0.84746	    -0.716315	     0.986265	   -0.6463207	       0.7492	     1.254125
 1	1	92111	4	0.8	4	   1.023837	      608	    230.5	    838.5	  0.8879988	 527.94444	       35	562.31041	   0.6105128	    -3.63755	   2.825925	    2.045825	      2.1365	 -0.09598955	    1.951925	    -1.79497	     0.12581	    -1.54065	      0.51456	      -1.6856	     1.030939	      2.17165	      0.59582
 1	1	11229	4	0.8	4	   1.622435	   1320.5	    157.5	     1478	  0.6195437	 616.51358	76.861347	596.13645	      3.3019	        2.92	    -2.9112	     -2.3266	   0.2052843	  -0.3015925	   -1.831725	    1.302858	    1.526475	  -0.7206375	       3.0003	      1.08822	     -1.60836	     -0.80012	     -0.51537
 1	1	11292	5	  1	4	   1.942198	   2012.4	    216.4	   2228.8	  0.8669793	 1570.5505	226.89822	 1754.877	     3.05882	     3.04666	    -3.1572	   0.0382008	     -1.9795	    0.145934	    -1.72722	    2.804938	   -0.302719	     1.31288	      3.20476	      1.31946	    -0.352256	    -0.264508	    -0.666584
 1	1	11922	5	  1	4	   1.021012	    889.6	    221.2	   1110.8	  0.3150763	  459.3983	167.94404	594.63703	     3.38416	     2.88152	  0.4362772	    -2.57346	     -1.8659	   -1.175242	    -1.71806	  -0.2744387	    0.962572	     1.40292	      2.20894	      1.16347	    0.1618223	     -1.61086	    -0.462996
 1	1	12129	5	  1	4	    0.66577	      338	       66	      404	  0.7323716	 448.78503	28.879058	474.82418	     3.14486	    -3.06168	    3.75684	    -2.16348	    0.301934	   0.1741324	     2.58282	    -1.79215	    1.123646	   -0.695474	        3.319	    -0.478816	      1.96467	    -1.039834	    -0.393566
 1	1	12192	5	  1	4	   1.301204	   1162.8	    301.2	     1464	  0.6680869	 891.93453	247.08541	1001.0854	     3.12526	     -2.6356	    2.78684	   0.4458766	     -2.0977	    -1.15348	      1.4876	   -1.204786	   -0.940524	      1.6382	      1.97176	       -1.148	     1.582078	    -0.494622	    -0.459546
 1	1	12219	5	  1	4	  0.4265558	    341.6	    245.6	    587.2	  0.3312567	 330.35254	181.40783	428.66444	     3.79186	    -2.82282	   -3.23576	      1.9055	    0.548822	   0.1717586	     1.99492	    3.429978	   -0.925034	   -0.544474	       3.9636	    -0.827908	    0.1941961	     0.980472	     0.004352
 1	1	12291	5	  1	4	   0.545238	    476.8	      168	    644.8	  0.3743482	 535.60732	160.29348	691.96618	     2.90262	    -3.46076	    -3.3434	   0.0546068	     2.27296	   0.1020472	     1.90754	     3.14844	   -0.186709	   -1.036008	      3.00466	      -1.5532	   -0.1949621	   -0.1320846	      1.23698
 1	1	12912	4	0.8	4	   2.106375	     3851	      307	     4158	  0.6988601	 2513.0139	256.64762	2660.5388	    2.474475	   -2.762225	 -0.3599825	    1.776025	    -2.14045	  -0.5433775	    1.083327	   0.5280163	  -0.9319925	    1.528675	     1.931075	      -1.6789	    0.1680445	      0.84403	   -0.6118125
 1	1	12921	5	  1	4	   0.973086	      938	    271.6	   1209.6	  0.6519616	 743.72307	293.39189	815.28081	     2.98806	    -3.20036	  0.2734958	    -2.42696	      2.2641	   -0.395328	      2.2638	  -0.2853084	      2.0779	    -1.47402	       2.5927	    -0.936584	  -0.01178582	    -0.349058	     0.790064
 1	1	19122	5	  1	4	     1.7185	   1522.8	    100.4	   1623.2	  0.4207383	 1007.0686	37.825917	986.71333	      3.0406	  -0.1784338	    3.65068	     -2.4377	    -1.89494	   0.1523448	   0.1204846	    -1.26478	     1.53472	      1.4655	      3.19294	    -0.057938	      2.38591	    -0.902986	     -0.42951
 1	1	19212	3	0.6	4	   2.076133	2150.6667	180.66667	2331.3333	  0.1890184	 916.35001	66.763263	854.24431	       2.715	    0.126027	  -3.151533	    1.734933	   -2.459967	     0.30831	 -0.09265667	    3.774763	    -0.46572	    1.848267	       3.0233	   0.03335333	    0.6232001	     1.269233	   -0.6117567
 1	1	19221	5	  1	4	   1.389368	    940.4	    168.4	   1108.8	   0.777656	 807.09776	187.65607	958.62568	      3.1281	    0.609298	   -2.96314	     -2.1528	     1.93962	  -0.2097908	   -0.910918	    2.278208	     1.15924	    -1.12456	      2.91832	   -0.3016148	   -0.6849232	    -0.993552	     0.815068
 1	1	21129	5	  1	4	   0.609524	    655.2	    128.4	    783.6	  0.3314156	 687.53851	228.40928	910.08066	    -3.85468	      3.0216	    3.47486	     -1.9347	  -0.1631208	     3.71766	    -1.63126	   -1.732928	     1.39022	   -0.428558	   -0.1369664	       1.3903	     1.741944	    -0.544464	    -0.591668
 1	1	21192	3	0.6	4	   1.466627	      832	167.33333	999.33333	  0.9127318	 599.10934	68.244658	604.69607	   -3.508367	    3.177133	     2.4145	   0.3839517	   -2.088433	    3.493133	   -1.543667	   -1.005774	  -0.1447247	      1.8748	  -0.01534467	     1.633433	     1.408743	    0.2392233	   -0.2136467
 1	1	21219	5	  1	4	  0.3903904	    277.2	    403.2	    680.4	  0.3148113	 260.88542	550.17379	796.22158	    -2.77312	     3.40808	   -3.47648	     1.72516	    0.374926	     3.04178	    -1.64212	    3.642102	   -0.733188	   -0.425776	     0.268658	      1.76596	    0.1656464	     0.991994	  -0.05082592
 1	1	21291	5	  1	4	   0.484832	      564	    121.6	    685.6	  0.3496757	 747.05689	27.327642	747.79864	    -2.51996	     3.33758	   -2.51324	   -0.258892	     1.79164	     3.17402	    -1.54218	    2.127798	  -0.1018812	   -0.899332	     0.654102	       1.7954	   -0.3854506	    -0.360764	     0.892344
 1	1	21912	5	  1	4	    0.88032	    680.4	    309.2	    989.6	   0.647539	 939.04995	 263.9265	1129.3081	    -4.11876	     3.50094	  -0.125595	     1.95642	      -2.324	     3.60616	    -1.68132	   0.8159892	   -0.721882	     1.71312	    -0.512614	      1.81958	    0.6903758	     1.234544	    -0.610938
 1	1	21921	4	0.8	4	  0.6561875	     1667	      145	     1812	  0.8599479	 2970.0139	 40.14972	3005.4621	   -2.763725	     3.38635	  -0.262665	   -2.136025	    2.122875	    1.563475	   -1.618625	   0.0368255	      1.9382	  -0.8297825	    -1.200175	       1.7677	   -0.2258532	    -0.197855	     1.293075
 1	1	22119	4	0.8	4	  0.9990825	    953.5	    267.5	     1221	    0.50532	 1206.9812	176.37366	1169.9761	   -2.898875	    -3.14235	   3.501575	    2.528825	    0.067885	    2.635625	     1.58865	   -1.648284	    -0.68415	   -0.523035	   -0.2632983	      -1.5537	     1.853275	      1.84465	     -0.45513
 1	1	22191	5	  1	4	   0.813592	    963.2	      332	   1295.2	   0.379212	 1054.5792	447.63154	1479.0298	      -2.762	    -4.23504	    2.63548	    -0.22877	     1.68392	     1.79246	     2.36088	   -1.158078	   -0.590832	   -0.759372	    -0.969592	     -1.87412	     1.477428	    -0.819606	      0.92453
 1	1	22911	5	  1	4	    0.99812	   1100.4	    104.4	   1204.8	  0.3187538	 660.40806	19.152023	664.69482	    -3.17698	     -4.3582	   0.446524	      1.7221	     1.68912	     3.13456	     2.47806	   0.2631254	   -0.905466	    -1.03272	   -0.0424558	     -1.88002	    0.7096404	     0.816658	     0.656422
 1	1	29112	5	  1	4	   1.542084	   1488.4	    109.6	     1598	   0.689405	  556.0259	28.156704	544.37487	    -4.15582	    0.171097	    2.87136	     1.77678	    -1.78132	     5.03526	   -0.740912	    -1.33024	   -0.767026	     1.38348	      0.87941	     -0.56982	     1.541154	     1.009744	    -0.397878
 1	1	29121	4	0.8	4	   1.262825	   2244.5	    172.5	     2417	  0.2456469	 2236.1529	73.255261	2199.4378	   -3.176375	  -0.2967715	   2.742225	   -1.845675	    1.791075	    3.709625	   -0.223425	   -1.176818	    1.609575	   -0.764915	    0.5331925	    -0.520185	      1.56542	   -0.2361115	     1.026182
 1	1	29211	4	0.8	4	   1.317887	     1270	      277	     1547	  0.3807193	 826.34295	165.83928	920.94661	   -3.485325	 -0.07604718	    -3.2184	    1.806275	      2.4481	      3.4728	  -0.4614275	    3.429108	   -0.604095	   -1.606175	    -0.012515	   -0.5374725	    0.2107198	     1.202198	     0.841915
 1	1	91122	4	0.8	4	   0.627585	    359.5	    320.5	      680	  0.3748743	 259.49374	111.27593	322.94891	   0.2316575	     3.40705	   3.498425	    -2.46835	     -2.1084	   0.4659375	   -1.860675	   -1.853075	    1.557275	    1.497325	     0.697655	       1.5464	     1.645348	   -0.9110225	     -0.61106
 1	1	91212	4	0.8	4	   1.527672	     1226	    312.5	   1538.5	  0.5021708	 170.74738	 104.9873	228.21262	  -0.2142655	    3.544775	    -2.9998	    1.847925	   -2.307125	   0.6122025	    -1.87245	     2.67904	  0.00585875	    1.695425	    0.3979325	     1.672325	   -0.3207272	     1.853775	   -0.6116975
 1	1	91221	5	  1	4	    0.44455	    297.2	    259.6	    556.8	  0.2011691	 192.52844	172.39142	355.13547	   0.1054728	     2.72622	   -2.90966	    -2.29472	     2.15698	     -1.1935	    -1.76132	    1.878412	     2.11414	    -1.35528	     -1.08804	     0.964844	    -1.031234	   -0.1805202	     0.801728
 1	1	92112	3	0.6	4	   1.683267	5133.3333	271.33333	5404.6667	  0.2022883	  685.3797	 42.72392	704.65121	  -0.4542833	     -3.4503	     2.4139	    2.190733	      -1.781	     1.38533	    2.708833	  -0.7621527	    -0.37869	    1.826967	    0.9311133	   -0.7414367	      1.65172	       1.8121	    0.0459801
 1	1	92121	5	  1	4	    0.76609	      812	    200.4	   1012.4	  0.6539301	 1093.6124	268.65368	1337.1712	   -0.602312	     -3.4068	     3.1411	     -2.0638	     1.95662	    1.121418	     2.27718	   -1.461626	     1.71706	    -1.23198	     0.519084	    -1.129636	     1.679448	    -0.346722	     0.724658
 1	1	92211	5	  1	4	   0.924682	    668.8	    131.6	    800.4	  0.7766215	  654.3036	124.75095	770.74302	  -0.2844754	    -4.40198	   -3.52958	     2.05558	      2.5882	    1.249512	     2.52202	    3.054604	    -0.74999	     -1.0526	     0.965012	     -1.87984	   -0.4749524	      1.30562	       1.5356
 1	1	12229	5	  1	4	    0.82894	      744	      170	      914	   0.628445	  981.5936	144.48529	1122.4883	     4.04092	    -2.75914	   -3.54222	    -2.26312	    0.309326	   -0.296506	     1.49066	    2.322488	      1.5469	   -0.530414	      3.74442	     -1.26846	    -1.219775	    -0.716248	    -0.221104
 1	1	12292	5	  1	4	   1.328324	      752	    158.8	    910.8	  0.5585255	 599.83498	59.103299	618.93715	     3.45348	     -3.1425	   -3.10452	   0.2227282	      -1.998	   -0.585498	     1.67792	      2.2121	    0.098922	      1.3862	      2.86798	    -1.464602	    -0.892446	    0.3216452	     -0.61179
 1	1	12922	4	0.8	4	    1.34519	   1746.5	    222.5	     1969	     0.5186	 1496.3461	69.135133	1481.6932	    3.203825	   -2.903625	  0.1926672	     -2.6234	   -1.658725	    -0.17659	     1.66045	  -0.0490135	    1.668825	    1.195855	     3.027275	    -1.243173	    0.1437056	     -0.95458	   -0.4628925
 1	1	19222	5	  1	4	   1.182118	   1076.4	     83.6	     1160	  0.3707395	 550.24794	39.354796	536.18653	     2.68126	   -0.114676	   -3.84322	    -2.80164	    -1.64526	   -0.637352	   -0.846892	    2.444588	     1.50022	     1.21594	       2.0439	     -0.96158	    -1.398638	     -1.30146	    -0.429408
 1	1	21229	5	  1	4	   1.167234	   1330.8	      278	   1608.8	  0.6620559	 1022.4291	269.36963	1143.9166	    -2.76142	     2.75282	   -3.56734	    -2.13736	  -0.1942858	     3.06056	    -1.49728	    2.599092	     1.84166	 -0.05828706	    0.2991604	     1.255576	   -0.9682614	    -0.295688	    -0.252572
 1	1	21292	5	  1	4	    1.06192	    647.6	    194.4	      842	  0.4055457	 352.43553	145.25426	463.26882	    -3.37602	     3.40642	    -2.9182	   0.0820658	    -1.75244	     4.20022	    -1.76292	    2.302206	   -0.258298	     1.18215	       0.8242	     1.643508	   -0.6159612	   -0.1762318	    -0.570282
 1	1	21922	5	  1	4	   0.975608	     1496	      180	     1676	  0.6068008	 1779.9309	187.98404	1957.1638	    -3.28588	     3.17804	  -0.065668	    -2.63798	     -2.1265	     2.79076	    -1.83022	   0.2145678	    1.087944	      1.6636	    -0.495148	     1.347788	    0.1489058	     -1.55008	    -0.462926
 1	1	22129	4	0.8	4	   1.302878	     1227	      251	     1478	  0.5996779	 896.37864	350.82569	892.91134	   -2.666725	   -3.038575	   3.288625	   -2.052275	    0.431425	    2.312425	      1.9715	    -1.83795	     1.24355	  -0.9781325	      -0.3543	    -1.067108	     1.450667	    -0.808705	    -0.546705
 1	1	22192	5	  1	4	   2.141672	   2189.6	      198	   2387.6	  0.7091867	 758.12189	154.18171	826.72051	    -3.72622	    -3.87604	    2.67732	  -0.2039804	    -2.20674	      2.8674	     2.15866	  -0.8681346	   -0.756764	     1.90634	     -0.85878	      -1.7174	      1.80917	    -0.960746	    -0.300418
 1	1	22219	5	  1	4	   1.224024	   2488.4	      234	   2722.4	  0.6851609	 2162.3989	125.72192	 2272.354	    -2.70408	    -3.88018	   -3.26236	     1.89142	    0.492912	     2.26196	     2.08092	    2.016226	   -0.482912	   -0.850794	    -0.442096	     -1.79932	    -1.246138	      1.40852	    -0.357862
 1	1	22291	4	0.8	4	    1.26193	   1236.5	      168	   1404.5	   0.724332	 1031.7524	107.15721	1040.7195	     -2.5104	   -3.730475	  -2.776375	   0.1520776	    2.673575	     1.29913	     1.86455	    1.764215	    -0.63386	   -1.879575	    -1.211275	      -1.8659	    -1.012163	    -0.481785	    0.7940325
 1	1	22912	5	  1	4	   1.162422	   1670.8	    160.8	   1831.6	  0.5506293	 1006.3306	138.38063	1085.5997	    -3.81626	    -3.84658	 -0.2604446	     1.96242	    -1.72576	     3.96092	     2.31068	   0.7043734	   -0.849068	     1.39764	    0.1446276	     -1.53592	    0.4439184	     1.113344	    -0.328192
 1	1	22921	4	0.8	4	  0.7652825	   1278.5	    365.5	     1644	  0.4897809	 1346.9614	369.72557	1262.9605	   -2.866475	    -3.16595	-0.04652225	    -1.87745	     1.96305	       2.399	      1.8334	  -0.1375379	   0.9167125	  -0.9400075	    -0.467435	      -1.3326	   -0.1840478	     -0.96073	      1.02305
 1	1	29122	5	  1	4	   1.213736	   1163.2	    147.6	   1310.8	  0.5558701	 318.04276	183.36521	392.19536	    -4.32596	  -0.1132248	     2.6394	     -2.1208	    -1.83018	     5.22208	   -0.613628	   -1.145378	    1.334024	     1.40084	    0.8960845	    -0.726834	     1.494036	    -0.786782	     -0.42946
 1	1	29212	4	0.8	4	   1.097293	    645.5	      181	    826.5	  0.5218709	 415.37252	239.58019	649.65709	   -3.396025	   0.3012825	    -3.8027	     2.02055	    -1.87055	      3.8625	   -0.992265	    3.743327	    -1.05595	    1.362325	    0.4664925	   -0.6909625	   -0.0594123	    0.9645675	    -0.508255
 1	1	29221	4	0.8	4	   0.750945	   1335.5	    333.5	     1669	  0.5254884	 1717.4061	389.73966	2095.6784	   -2.974325	  -0.1083989	    -2.7264	   -2.114575	     1.91835	    2.771025	  -0.4190425	     2.35681	   0.9845525	   -0.939605	    -0.203265	   -0.5274625	    -0.369572	    -1.130022	     0.978735
 1	1	91222	5	  1	4	    1.61975	   1359.6	    241.6	   1601.2	  0.6340858	 949.19166	193.97629	879.65743	   0.5529566	     3.25608	   -3.36914	    -2.69348	    -1.60252	     0.48648	    -1.74138	    2.791084	     1.95198	    1.015704	     1.039422	     1.514678	   -0.5780661	     -0.74152	    -0.586818
 1	1	92122	5	  1	4	   1.378592	   1148.4	    189.6	     1338	  0.4994557	 938.75279	 177.9292	 1102.313	    0.344038	     -2.9109	    3.20886	     -2.6227	    -1.71566	   -1.373394	     1.69556	   -1.201404	     2.32132	     1.65212	    -1.029326	     -1.21534	     2.007462	    -0.301442	  -0.06353762
 1	1	92212	4	0.8	4	   0.953555	   1628.5	      411	   2039.5	   0.338432	 1503.7884	547.81627	2020.2874	   -0.454535	     -3.1583	  -2.708325	    2.080725	   -1.876475	    1.137698	     3.07065	    4.802425	    -0.74954	        1.21	    0.6831475	  -0.08765475	     2.094087	     1.331175	     -0.66646
 1	1	92221	5	  1	4	   0.845564	    700.8	     80.8	    781.6	   0.670017	 661.81206	31.924912	689.47864	    -0.60362	    -2.93206	   -3.18798	    -1.99188	     2.26578	    0.343812	     1.79704	    2.334202	    0.981648	    -1.66954	   -0.2597946	    -1.135006	   -0.8537686	    -1.010228	     0.596224
 1	1	22229	5	  1	4	   0.651632	   1543.6	    211.6	   1755.2	  0.6262575	 2917.6992	 138.8121	3049.4946	    -2.95722	    -3.97228	   -3.35018	    -2.38676	      0.3784	     2.35394	     2.21346	    1.946622	     1.41018	   -0.406386	    -0.603322	     -1.75878	     -1.40351	    -0.976598	  -0.02793494
 1	1	22292	5	  1	4	   0.509716	    379.2	    230.4	    609.6	  0.2251903	 431.08607	232.74621	 658.6887	    -2.84416	    -3.39198	   -3.12936	  -0.3065676	    -2.46074	      2.6993	     2.00104	    2.604946	   -0.213732	     1.85498	   -0.1447968	     -1.39092	   -0.5244084	    -0.520298	    -0.605766
 1	1	22922	5	  1	4	   0.675178	    453.2	       98	    551.2	  0.4387977	 293.60041	37.094474	289.92965	    -3.14196	    -3.14954	   0.638516	    -2.77746	    -2.01186	     3.10448	     2.01296	  -0.4512712	     1.72532	     1.40004	   -0.0374734	      -1.1366	    0.1872278	    -1.052174	    -0.611792
 1	1	29222	5	  1	4	   1.316838	    828.8	    124.8	    953.6	  0.5820906	 395.89039	68.185042	427.90046	    -3.72504	   -0.258978	   -3.05768	     -2.4195	    -1.75254	      4.6794	    -0.46816	    2.174832	     1.69736	    1.323162	     0.954324	    -0.727136	   -0.8828662	    -0.722148	     -0.42947
 1	1	92222	5	  1	4	   0.490564	      430	    183.6	    613.6	  0.2341784	  427.5114	124.08384	411.53712	   -0.369952	    -3.96212	   -3.11336	    -2.61136	    -1.59294	    0.629934	      2.4634	    2.715512	     1.89466	    1.019848	    0.2600168	      -1.4987	   -0.3978412	    -0.716748	     -0.57307
 1	1	11111	5	  1	5	     0.7016	    453.2	      110	    563.2	  0.2254633	 216.59455	141.69686	182.74901	      2.6566	     3.08488	     4.0377	     1.83106	     1.68664	   -0.311666	    -1.55156	   -1.379296	    -1.22242	     -1.2148	      2.34492	      1.53328	     2.658398	     0.608664	     0.471856
 1	1	11112	3	0.6	5	     1.4161	1428.6667	      256	1684.6667	   0.469074	  1449.421	 78.25599	1526.7119	    2.996867	      3.3514	   2.796833	    1.951967	   -2.208667	   -1.158897	   -2.077967	    -1.76702	    -0.57546	      1.5971	        1.838	     1.273467	     1.029821	     1.376533	     -0.61159
 1	1	11121	4	0.8	5	   0.854415	      938	    118.5	   1056.5	  0.6211023	 1457.7581	35.679126	1485.4058	    2.720275	    2.873225	    3.04535	      -2.429	    1.834175	   -1.019127	   -1.798725	   -1.828763	    1.509425	    -1.57725	       1.7012	     1.074495	     1.216595	     -0.91958	    0.2569225
 1	1	11211	4	0.8	5	   1.615075	     3362	      376	     3738	  0.4050812	 1210.0149	245.80209	1240.8524	      2.5128	    2.564625	  -3.595525	     1.82225	     2.33265	 -0.00437275	     -1.8042	     3.20887	    0.311755	    -1.13655	      2.50845	      0.76045	   -0.3866943	        2.134	     1.196117
 1	1	12111	5	  1	5	    1.75152	   2015.2	     98.8	     2114	  0.2763896	 1101.5095	55.867701	1055.1095	     2.86076	      -2.806	    2.65784	     1.80022	     1.73876	  -0.1111888	     1.43371	   -1.569476	    0.624856	     -1.1124	      2.74962	    -1.372302	      1.08838	      2.42506	     0.626346
 1	1	21111	5	  1	5	    0.93199	    861.2	    140.8	     1002	  0.5346073	 825.92445	132.42809	 954.0587	     -3.2549	     2.67196	     3.7542	     1.89468	      1.8082	     2.37608	    -1.89594	   -2.272514	   -0.367868	    -1.78994	     -0.87882	     0.776018	      1.48166	       1.5268	    0.0182294
 1	1	11122	5	  1	5	    0.81233	    471.6	    193.6	    665.2	  0.3571319	 208.39578	171.53659	373.84382	       3.367	     3.06694	    3.73252	    -2.41408	    -1.61016	   0.0769114	    -1.62082	   -1.540094	     1.42024	     1.18074	      3.44388	      1.44606	     2.192394	    -0.993844	    -0.429536
 1	1	11212	5	  1	5	    1.93238	     2210	      314	     2524	  0.3386573	 1202.1023	338.85985	1448.4688	     3.10188	     3.37468	   -3.07466	     1.74414	     -2.3585	   -0.345974	    -1.87658	    3.721608	    -0.58197	     1.74674	      2.75586	       1.4981	    0.6469388	      1.16219	     -0.61178
 1	1	11221	5	  1	5	      1.489	      980	    254.8	   1234.8	   0.768293	 457.42103	203.81658	531.85261	     3.55244	     2.94554	   -3.77704	    -1.99836	      1.8198	    -0.99767	    -1.56636	     2.94306	     2.47376	   -0.823186	       2.5548	     1.379198	   -0.8339814	      0.47536	      0.99661
 1	1	12112	5	  1	5	    1.78138	     3558	    163.2	   3721.2	  0.5801965	 3159.2888	 193.4456	3320.1423	      2.9919	     -3.1243	    2.89072	     1.69452	    -1.83648	   -0.460472	     1.92798	   -1.200934	    0.997432	     1.86442	      2.53142	      -1.1963	     1.689788	      2.69194	      0.02791
 1	1	12121	5	  1	5	   0.794098	      566	    106.8	    672.8	  0.3744893	  499.2254	67.891089	470.76024	     3.23428	    -2.71694	    3.57196	    -2.22072	     1.64816	  -0.2269526	     2.19016	   -1.633294	     1.12524	    -1.16028	      3.00732	     -0.52675	     1.938672	    -1.095508	     0.487882
 1	1	12211	5	  1	5	   1.263338	   1245.6	    203.6	   1449.2	  0.6106011	 829.29898	203.69782	997.36312	      3.3949	    -3.26126	    -3.2354	     1.69528	     1.92438	    -2.44988	     2.24442	    2.663606	  -0.1441592	    -0.62465	      0.94507	    -1.016836	   -0.5717795	       1.5511	     1.299682
 1	1	21112	5	  1	5	    1.32726	    892.4	    118.8	   1011.2	  0.8125189	 666.54542	59.692546	660.06454	      -4.312	     3.02632	    3.58256	     1.73426	    -2.10286	     4.99614	    -1.81174	   -1.938538	   -0.742046	     1.67518	     0.684146	     1.214582	      1.64405	     0.992246	    -0.427628
 1	1	21121	5	  1	5	   1.263904	   1003.2	     94.8	     1098	  0.4572744	 1031.0214	20.717143	  1027.82	    -3.02054	     3.03566	     2.8487	    -2.40924	      1.9447	     3.25754	    -1.75172	   -1.416084	      1.5225	    -1.09986	     0.236992	     1.283926	     1.432612	    -0.886766	     0.844864
 1	1	21211	4	0.8	5	   1.213575	     1954	      214	     2168	  0.4457286	 958.13847	289.97931	1162.8941	   -2.978475	    3.571125	   -3.30025	      1.8962	     1.89655	      1.9523	   -1.537425	    3.439145	    -0.48484	   -0.752115	     -1.02613	     2.033675	    0.1389057	     1.411325	     1.144475
 1	1	22111	5	  1	5	   1.026518	    617.2	      152	    769.2	  0.3960607	 327.47702	 20.92845	321.35214	     -3.0406	    -2.90056	    2.95244	     2.32434	     1.99192	     1.83996	     1.58502	   -1.326674	   0.1863884	   -0.696168	      -1.2005	     -1.31552	      1.62573	      2.51074	      1.29572
 1	1	11222	4	0.8	5	    1.63505	     1790	      265	     2055	  0.6195757	 1575.0767	127.58788	1676.2136	    2.804625	    3.062375	  -3.647525	   -2.620825	   -2.497825	     -1.4521	   -1.875875	    3.129742	     1.35905	     1.88615	     1.352475	      1.18656	   -0.5177668	    -1.261775	    -0.611725
 1	1	12122	5	  1	5	   1.215752	      992	      222	     1214	  0.3078808	 679.25253	315.55665	976.18031	     3.33744	    -2.62692	    3.55878	     -2.4198	    -1.71628	    -0.48216	     1.95044	   -1.768402	    1.282396	     1.25642	       2.8553	    -0.676514	     1.790392	     -1.13738	     -0.45988
 1	1	12212	4	0.8	5	    2.34865	   3379.5	    217.5	     3597	  0.4858932	 3465.8245	166.65633	3503.8118	     3.09405	    -3.33035	    -4.2749	    1.807575	   -1.884575	    -0.51913	     2.28425	    4.392605	   -1.076402	     1.60375	      2.57495	    -1.046092	    0.1176978	    0.7311875	     -0.28086
 1	1	12221	5	  1	5	    0.91065	    520.8	      220	    740.8	  0.7615928	 436.13209	212.76748	494.96182	     3.54836	     -2.9049	    -2.7306	    -2.35186	     1.94092	  -0.3112806	     1.75142	    2.520168	    1.167678	    -1.14558	      3.23708	      -1.1535	   -0.2104218	      -1.1842	     0.795372
 1	1	21122	5	  1	5	    0.90376	    751.2	      242	    993.2	  0.2435843	 469.83529	91.695147	552.34518	    -3.93288	     2.91304	    3.29426	    -2.45328	    -1.92238	     4.11528	     -1.5229	    -1.44778	     1.59264	     1.47902	     0.182375	      1.39014	     1.846468	    -0.860652	    -0.443392
 1	1	21212	5	  1	5	   1.416702	   1791.2	    135.6	   1926.8	  0.5548564	 1033.3311	18.022209	 1039.865	    -3.32538	     3.10226	   -2.71116	     1.86632	    -2.38726	     4.15626	     -1.4465	    4.877372	    -0.73491	     1.77548	      0.83094	      1.65576	      2.16621	      1.13138	    -0.611796
 1	1	21221	5	  1	5	    2.19558	   3292.4	    236.4	   3528.8	  0.3111352	 3334.4659	281.09927	3427.2405	    -2.94322	     3.70568	   -3.38226	     -2.0714	     2.06158	     2.32888	   -1.376876	    2.750952	     3.26562	   -0.670128	    -0.614312	      2.32884	   -0.6312876	     1.194206	     1.391498
 1	1	22112	4	0.8	5	   1.760333	     1535	    170.5	   1705.5	  0.7189037	 1066.3014	142.87874	1196.3983	    -4.09645	    -3.72605	    2.89095	    2.480675	   -1.737425	    3.324175	      2.0252	    -1.68703	   -0.960995	    1.402475	     -0.77235	     -1.70095	     1.203967	      1.51965	     -0.33498
 1	1	22121	4	0.8	5	   1.234873	   1038.5	    215.5	     1254	  0.6874671	 768.73294	 190.8254	826.26549	    -2.63625	   -3.521175	     2.9659	    -2.21865	      1.7544	      1.4357	    2.501675	   -1.274892	      1.9236	   -0.768265	     -1.20045	    -1.019505	     1.691005	    -0.295045	    0.9861225
 1	1	22211	5	  1	5	   1.039548	    902.8	      182	   1084.8	  0.5829176	 770.59016	144.22205	884.10022	    -3.52472	    -3.22846	   -3.10272	     1.82954	     2.68594	      2.3665	     2.16342	    2.635972	     1.27278	   -0.715716	     -1.15816	     -1.06505	   -0.4667394	      3.10228	      1.97026
 1	1	12222	5	  1	5	   1.003362	    771.2	      110	    881.2	  0.6698664	 641.64881	33.852622	634.11765	     3.21898	    -3.45778	    -4.1466	    -2.59092	    -1.93926	   0.1231016	     2.15716	     2.86882	     1.50558	     1.51552	      3.34206	      -1.3006	    -1.277752	    -1.085314	     -0.42379
 1	1	21222	5	  1	5	    1.93088	   1438.4	      190	   1628.4	  0.4829832	 459.36347	105.33755	489.75382	    -2.97728	     3.65302	     -3.948	     -2.5534	     -1.6735	     3.55434	     -1.5321	    3.211156	     2.15228	      1.1033	      0.57708	      2.12088	   -0.7368674	   -0.4011108	    -0.570176
 1	1	22122	5	  1	5	   0.924868	   1002.8	     78.8	   1081.6	   0.547379	 1135.0635	 42.67552	1172.7049	    -3.77612	    -3.40546	    3.52804	    -2.39376	    -2.12868	     3.75214	     2.30744	   -1.518576	    1.347002	     1.51689	   -0.0240314	    -1.097988	     2.009474	    -1.046724	      -0.6118
 1	1	22212	5	  1	5	    1.51062	   1663.2	    367.2	   2030.4	  0.2169834	 934.32821	338.33297	1112.3609	    -2.74004	    -3.74254	   -3.16778	     1.71376	     -2.1749	     2.35126	     2.67036	    4.328742	    -0.62432	     1.56336	     -0.38879	    -1.072164	      1.16094	     1.089446	     -0.61162
 1	1	22221	5	  1	5	   1.335742	    788.4	      188	    976.4	  0.6832509	 843.99692	125.86501	962.29143	    -2.83852	     -3.4771	   -3.11144	    -2.33278	     1.79926	     1.66258	     2.31126	    2.779268	     2.11728	   -0.677838	     -1.17586	    -1.165874	   -0.3321952	   -0.2155078	     1.121392
 1	1	22222	5	  1	5	   0.663172	    631.2	    188.8	      820	  0.2797192	  656.7383	121.93933	766.70855	    -3.39256	    -3.73666	     -3.707	    -2.18878	    -2.13136	     3.45768	     1.94804	     2.69463	     1.55892	      1.5445	    0.0651306	     -1.78858	    -1.012368	    -0.629878	     -0.58684
 1	2	19999	4	0.8	1	  0.9134585	    454.5	      106	    560.5	   1.114079	 585.81311	42.174242	552.49827	    3.123525	  0.06240632	 -0.8117025	  -0.4700025	   0.1058038	   -1.939225	   -0.769065	  -0.4245067	   -0.463785	  -0.6074375	     1.184273	     -0.70666	    -1.236205	     -0.93382	   -0.5016175
 1	2	91999	5	  1	1	 0.00798842	     22.8	    151.6	    174.4	0.008934789	 13.160547	99.402213	112.22656	   -0.655676	     3.30044	   -0.37314	   -0.245726	    0.466542	    0.235014	    -1.84412	   -1.052311	   -0.356436	      -0.759	    -0.420698	      1.45628	    -1.425428	    -0.602152	    -0.292406
 1	2	99199	4	0.8	1	   0.323785	    746.5	     72.5	      819	  0.6370772	 1453.0009	59.696454	1417.4856	  -0.3508739	     -0.1583	     3.4242	  -0.4319875	   0.2380962	  -0.3168075	  -0.9224875	   -2.062778	  -0.4786425	    -0.61972	   -0.6676525	    -1.080828	     1.361422	    -0.910645	   -0.3816525
 1	2	99919	5	  1	1	  0.1062511	    129.2	    102.8	      232	  0.1839148	  156.9433	21.004761	170.99708	   -0.259386	   -0.484704	 -0.1618964	     2.45472	   0.1035738	   -0.453322	   -0.575732	   -0.307026	   -0.957606	   -0.459336	    -0.712704	    -1.060462	   -0.4689554	      1.49716	    -0.355728
 1	2	99991	5	  1	1	   0.252259	    305.6	    119.2	    424.8	  0.2370988	 391.73307	142.56648	 427.2367	  -0.1724402	   -0.003841	   0.036936	    0.010856	     2.12568	   -1.025482	   -0.485738	   0.1430049	  -0.1720496	   -0.920082	     -1.19788	    -0.489558	    0.1799573	   -0.1611868	     1.205598
 1	2	29999	4	0.8	1	 0.03378573	       75	    167.5	    242.5	 0.05151262	 80.024996	97.452553	167.39076	   -3.401775	   0.2803872	  -0.100094	  -0.2894425	   0.6062975	     2.14735	    -0.45316	   -0.824465	  -0.5352075	   -1.140175	    -1.254425	   -0.1727805	   -0.9245775	   -0.8246375	   -0.5338875
 1	2	92999	5	  1	1	 0.06384686	    146.4	    143.2	    289.6	  0.1185878	 266.00526	146.35983	411.62945	    0.631918	    -2.95502	  0.2069248	   0.0380328	     0.49296	    -1.31368	    1.262596	   -1.044012	   -0.717554	   -0.893984	    -0.681768	     -1.69248	   -0.8370632	    -0.679504	    -0.401018
 1	2	99299	5	  1	1	 0.08813894	    103.2	    181.2	    284.4	   0.182178	 175.02914	121.27325	258.57069	    0.281236	   -0.457864	   -3.85434	  -0.1404394	    0.310254	     -1.2359	    -0.38022	    2.738116	  -0.0925138	   -0.451914	    -0.954618	    -0.838074	    -1.116286	    -0.232942	    -0.141668
 1	2	99929	4	0.8	1	 0.01068165	     35.5	    155.5	      191	0.005923281	 8.2259751	  34.6939	29.325757	  -0.2939725	   -0.180007	 -0.4540575	   -2.375175	    0.059329	   0.1556725	  -0.5496375	  -0.5076713	    1.059998	    -0.57571	   -0.1383005	     -0.72963	   -0.9617013	    -1.315175	   -0.5163775
 1	2	99992	5	  1	1	  0.2775801	    546.4	    205.2	    751.6	  0.6072807	 1149.1687	129.58086	1243.7865	    0.037562	    -0.27082	  0.0049834	   -0.396464	    -2.26652	   -0.766528	   -0.875816	  -0.8228668	  -0.0361776	     1.65538	    -0.728996	     -1.14662	   -0.8178934	    -0.432646	    -0.611122
 1	2	11999	5	  1	2	   0.480708	      186	      148	      334	   0.704224	 181.50482	112.03571	291.76018	      2.8614	     3.30706	   0.238476	   -0.367506	    0.493998	     -1.6678	    -1.94498	  -0.9189284	   -0.483326	   -0.908736	     1.193638	     1.362078	   -0.6804412	    -0.850832	    -0.414808
 1	2	19199	4	0.8	2	  0.6369583	    236.5	       95	    331.5	   1.179641	  374.6763	70.588007	348.89301	    3.345875	   0.1869275	    3.40965	  -0.1053275	     0.65835	   -2.067975	  -0.9967475	    -1.98645	   -0.614515	   -1.311475	     1.277925	     -0.80982	     1.423192	   -0.7198525	    -0.653165
 1	2	19919	5	  1	2	   0.613478	    910.8	    199.6	   1110.4	   0.545896	 820.85882	125.96349	906.86537	     2.56036	  -0.2322418	  -0.897214	     1.91768	     0.35969	    -1.52762	    -0.70281	   0.5862432	    -1.62262	    -0.44091	      1.03273	    -0.935068	   -0.3109642	     0.295066	   -0.0812146
 1	2	19991	4	0.8	2	  0.2084875	      126	    243.5	    369.5	 0.05357252	 56.237591	169.99118	218.67099	    2.831875	   0.1121352	   0.209065	 -0.05040025	     1.61695	   -1.293225	  -0.7991425	  -0.6001735	  -0.3716275	   -1.096775	     1.538625	     -0.68701	   -0.3910965	     -0.42201	    0.5201725
 1	2	91199	5	  1	2	   0.697566	    315.2	    143.2	    458.4	  0.6321857	 251.13582	107.55092	353.22344	   0.0131344	     2.82584	    3.42446	   0.1249168	    0.376984	   -0.628876	    -1.53578	   -1.259834	   -0.209486	    -0.51625	    -0.615756	     1.290056	     2.164602	   -0.0845814	    -0.139288
 1	2	91919	3	0.6	2	  0.3526667	399.33333	180.66667	      580	  0.3206192	 568.73309	131.09284	699.75996	   0.4791367	    3.002667	 -0.8594033	    2.213333	   0.5366433	   -1.430533	   -1.615567	   0.5196223	    -0.66065	  -0.5207033	     -0.95138	     1.387067	    -0.339811	       1.5527	     0.015952
 1	2	91991	4	0.8	2	  0.1688888	    145.5	      128	    273.5	 0.08359211	 53.525695	37.558843	87.061281	   0.4132275	    3.564425	 -0.0641675	  -0.3532425	    1.724275	   -1.436675	    -1.80065	  -0.4309335	  -0.2549625	      -1.072	     -1.02347	     1.763775	   -0.4951283	   -0.6082375	    0.6522475
 1	2	99119	3	0.6	2	  0.1721867	      172	      164	      336	 0.03077727	 173.21663	61.611687	112.94246	    0.178811	    0.225957	     3.6748	    2.298333	   0.3588733	   -1.137867	    -0.29774	   -1.374787	   -0.475743	  -0.4723167	   -0.9591367	    -0.071771	      2.30005	     1.822567	     -0.11344
 1	2	99191	2	0.4	2	   1.173255	     1300	      324	     1624	  0.7965487	 893.78297	212.13203	681.65094	     -0.4085	   0.1020905	    2.58895	    -0.42052	     2.47875	    0.484445	      1.1978	   -1.029625	   0.1281705	     -1.9699	    0.0759272	      1.29995	     1.559355	    -0.292335	     0.508905
 1	2	99911	4	0.8	2	    0.93345	    744.5	    106.5	      851	   0.303651	 131.56874	29.681644	142.45935	    0.490785	  -0.4390378	-0.03305525	     2.09595	     1.97895	   -1.058335	    -0.63733	  -0.2978605	   -1.668775	   -1.135925	    -0.567555	     -1.07639	   -0.3309135	      0.42712	    0.8430425
 1	2	12999	3	0.6	2	    0.89576	      522	275.33333	797.33333	  0.6265651	       632	166.76131	481.16664	    3.721433	   -3.308133	   0.379591	   0.1023517	   0.4767467	   -1.338367	    1.432533	    -1.18887	  -0.4788267	  -0.8991067	     2.383033	      -1.8755	   -0.8092973	   -0.3764667	     -0.42234
 1	2	19299	5	  1	2	   0.160736	    126.4	    132.4	    258.8	  0.2298049	 138.27075	118.69625	254.59222	     3.99608	   -0.450532	   -3.53256	      0.5088	     0.38022	    -1.95388	    -0.64736	    1.359998	      -1.235	   -0.478264	      2.04224	    -1.097868	    -2.172566	    -0.726192	    -0.098013
 1	2	19929	4	0.8	2	  0.2708538	    471.5	     90.5	      562	  0.2646658	 788.38802	29.410882	 779.2937	     3.46165	   0.0883925	  0.2683187	    -2.97105	  0.02900085	    -1.75585	   -1.035197	  -0.9563173	    1.406775	  -0.4583375	     1.705775	     -0.94681	    -0.688004	     -1.56425	   -0.4294225
 1	2	19992	3	0.6	2	  0.7054033	      882	      304	     1186	  0.4279747	 1175.4761	122.29473	1297.6702	      2.9989	   -0.538344	 -0.3909033	   0.5407333	     -2.4411	     -1.4604	  -0.3832967	    0.075322	      -1.334	    1.978933	     1.538433	     -0.92169	    -0.315586	   -0.7932767	     -0.46216
 1	2	21999	5	  1	2	  0.2745298	    388.8	    193.6	    582.4	  0.4641886	 637.49918	89.346516	722.83387	    -2.88596	     3.33092	 -0.2722219	    0.227296	    0.320678	     2.16256	    -1.93954	   -1.227122	    -1.20006	   -0.519012	     -0.72337	       1.3914	     -1.49935	    -0.972782	     -0.19837
 1	2	29199	5	  1	2	  0.3177165	    341.6	    172.8	    514.4	  0.4108786	 332.01928	151.08673	455.56646	    -3.10326	  -0.0788598	    4.07916	    0.287426	    0.348764	     2.40534	   -0.391122	    -1.40086	   -0.159342	    -0.44215	    -0.697956	    -0.470006	     2.678316	    0.1280972	    -0.093334
 1	2	29919	5	  1	2	   0.860318	    808.4	      166	    974.4	  0.5250944	 560.33276	99.277389	570.04456	    -3.06382	   -0.370348	  0.0899558	      1.8459	    0.383046	     1.94176	   -0.709598	  -0.5951644	   -1.034502	   -0.665322	    -1.122138	     -1.07996	   -0.5052052	     0.811348	    -0.282268
 1	2	29991	5	  1	2	     1.0053	    897.2	    228.8	     1126	  0.9892141	 628.49598	165.76248	 680.9743	      -2.992	  -0.2460066	   0.585844	 -0.09012867	     1.96506	     2.50346	   -0.498852	   -0.699959	   -0.362516	   -1.056806	    -0.488536	    -0.744856	   -0.1141232	    -0.452638	     0.908256
 1	2	91299	5	  1	2	  0.0369422	     77.6	    176.4	      254	 0.03019805	 45.064398	94.439399	139.23362	   0.1498378	     3.35384	   -3.21718	   -0.587038	    0.429084	   -0.845848	    -1.96752	    1.652886	  -0.1781268	   -0.922716	    -0.696026	      1.38632	    -1.564271	    -0.765172	    -0.493612
 1	2	91929	5	  1	2	  0.1467558	    119.6	      178	    297.6	 0.09786457	 70.019997	117.66053	186.60868	    0.629494	     3.26934	  -0.515686	     -2.0348	    0.379806	   -1.075694	    -1.59848	   0.1367077	     1.79038	   -0.542634	    -0.446216	      1.67088	   -0.3789702	    -0.244377	    -0.162878
 1	2	91992	5	  1	2	  0.2977924	      500	      118	      618	  0.2986429	 928.79276	27.202941	 924.2597	     0.49665	     3.77074	    0.18053	    0.120862	    -1.91582	   -1.029498	    -2.03172	  -0.9108616	   -0.923034	     1.45518	    -0.532892	      1.73906	   -0.7303268	    -0.802176	    -0.460626
 1	2	92199	5	  1	2	  0.2659826	    281.2	    159.2	    440.4	  0.2544906	 323.58492	86.482368	409.42496	   0.4734748	    -3.63606	    3.30638	  -0.2811364	    0.507472	   -0.502876	     1.90854	   -2.360984	   -0.566282	   -1.017266	  -0.02937996	     -1.72746	     0.945414	    -0.847432	    -0.509762
 1	2	92919	4	0.8	2	   1.157118	    565.5	       47	    612.5	  0.7444141	 469.08528	39.276796	441.79143	 -0.00475075	     -3.7232	 -0.5372325	      2.0063	   0.1475577	    -1.20075	     2.67795	  -0.3953922	    -0.91391	  -0.5190025	    -1.205625	    -1.045245	   -0.9326397	     1.092407	   -0.3714625
 1	2	92991	4	0.8	2	  0.6170925	     1005	     67.5	   1072.5	   0.521219	  1328.379	  31.8486	1330.9539	  -0.6911575	   -2.861325	   -0.06287	    -0.41499	    1.952225	  -0.1015802	      1.1306	   -0.654464	   -0.039405	   -1.144125	    -0.792745	      -1.7307	   -0.7173385	    -0.454405	    0.8081175
 1	2	99129	5	  1	2	  0.1011643	    177.6	    183.2	    360.8	  0.1241245	  151.0192	236.68376	288.59175	   -0.232144	  -0.1844493	    3.30992	    -2.49966	   -0.330184	   -0.880936	   -0.479668	  -0.9346284	     1.92862	    0.163376	      -1.1131	    -0.664082	     2.375286	    -0.571056	    -0.166826
 1	2	99192	5	  1	2	   0.711762	    966.8	      100	   1066.8	  0.9329843	 1768.2695	59.665736	1805.4144	     0.07891	  -0.1506192	    3.44336	  -0.2968816	     -2.1322	   -0.800698	   -0.694684	    -2.01728	   -0.401194	     1.46566	    -0.721806	    -0.845304	     1.426072	    -0.698048	    -0.666554
 1	2	99219	4	0.8	2	  0.2153813	      499	    134.5	    633.5	   0.306458	  793.1263	 179.6543	969.81424	   -0.194655	  -0.4635072	   -4.37345	    2.205525	  -0.0855965	    0.370305	   -0.717955	     3.04492	   -0.861325	   -0.282345	    0.1756367	     -1.18146	    -1.328512	       1.3442	     -0.36789
 1	2	99291	5	  1	2	   0.726038	    667.6	    263.2	    930.8	  0.6693148	 380.17207	140.87299	336.27548	 -0.00370924	  -0.2622208	   -2.52766	  0.01938292	     2.05694	     -0.6836	   -0.627238	    2.063292	   -0.779366	    -1.16398	    -0.687314	    -0.889464	   -0.4643972	    -0.759992	     0.892934
 1	2	99912	5	  1	2	   1.297786	    647.2	      154	    801.2	  0.7986421	 353.25232	155.06773	423.24839	  -0.1043696	  0.03017446	 -0.2287094	     2.15716	    -2.12422	   -1.101508	  -0.1231406	   0.4159438	    -1.01778	     1.69482	     -1.20598	    -0.092975	     0.187243	      1.13941	    -0.429444
 1	2	99921	4	0.8	2	  0.4157325	    468.5	    148.5	      617	  0.5294054	       211	60.207973	251.83328	   -0.236795	  -0.4006925	   -0.28824	    -2.91025	       2.102	   -0.155245	  -0.7141825	   -1.025513	      1.8919	   -1.890625	   -0.3921031	    -1.114902	    -1.313732	    -1.018393	    0.2113675
 1	2	22999	5	  1	2	    0.31784	    148.4	    168.8	    317.2	  0.2228359	 72.792857	108.23678	164.25346	    -3.13144	    -3.75604	 -0.0336306	   0.0669742	     0.27896	     2.99542	     2.39694	  -0.1716515	  -0.0994794	    -0.40021	   -0.1359872	     -1.35916	    -0.205273	  -0.03250772	    -0.121282
 1	2	29299	5	  1	2	   0.325378	    403.6	    120.4	      524	  0.6250552	 763.90235	118.74679	878.11275	    -2.99562	   0.0165962	   -3.54918	    0.172789	    0.595456	     2.37266	   -0.926134	    1.876962	    -0.40119	   -0.953644	    -0.622912	    -0.909552	     -1.67219	    -0.228408	    -0.358146
 1	2	29929	4	0.8	2	  0.2267355	    249.5	      182	    431.5	  0.2222189	 264.43084	70.275648	245.05442	   -3.147875	  -0.4032325	  0.1838825	   -2.487575	   0.1004132	    3.293225	  -0.6516325	   -1.182825	    1.476975	  -0.7063575	    0.1453292	     -1.05488	   -0.9989605	     -1.01062	   -0.6059775
 1	2	29992	5	  1	2	  0.2993392	    417.2	    109.2	    526.4	  0.4004929	 379.48017	14.324804	385.93626	    -4.12996	   -0.635202	  0.3032792	    -0.35321	     -1.8624	     2.81212	    -0.66798	   -1.242544	   -0.704436	     1.25325	     -1.31786	     -1.30324	   -0.9392456	    -1.057628	    -0.609148
 1	2	92299	5	  1	2	  0.4111503	    114.4	    168.8	    283.2	  0.8378616	 178.09773	68.565297	241.08339	     0.82661	    -3.29624	   -3.47042	   -0.327018	    0.578092	    -1.22176	     1.83632	    1.824094	    -0.65493	    -1.21814	    -0.395128	     -1.45992	    -1.646352	     -0.98195	     -0.64004
 1	2	92929	5	  1	2	  0.0635532	       68	      110	      178	 0.04181965	 26.267851	85.463442	107.85175	  0.05823549	     -3.4139	   0.002134	     -2.3047	    0.501006	    -1.19904	     2.14444	  -0.7443632	    1.135726	     -0.8699	     -1.14082	     -1.26944	   -0.7422204	      -1.1689	    -0.368904
 1	2	92992	5	  1	2	  0.3536272	    394.4	    188.4	    582.8	  0.3076281	 599.67725	158.47019	755.56416	   -0.631994	    -3.67672	   0.201062	   0.3687692	    -2.28054	   -0.440488	     1.69912	  -0.8689672	   -0.933066	     1.81866	     -1.07248	     -1.97764	   -0.6678889	    -0.564298	    -0.461904
 1	2	99229	4	0.8	2	  0.3149795	      250	      214	      464	  0.4472784	 374.70344	192.04166	564.33796	   -0.035289	  -0.0851425	    -3.1503	   -2.163175	     0.40734	  -0.0829345	    -0.68826	    1.346037	    1.057055	    -0.99782	   -0.1182442	     -0.77338	    -1.804253	    -1.106067	   -0.5904875
 1	2	99292	5	  1	2	   0.476898	    286.4	    185.2	    471.6	  0.1853043	 150.07598	167.66395	196.52175	   -0.410849	    0.112955	   -3.53984	   -0.351608	      -1.841	   -0.585766	    -1.27188	     1.65468	   -0.686396	      1.2294	     -0.99664	    -1.158936	     -1.88515	    -1.037994	    -0.611596
 1	2	99922	4	0.8	2	  0.6764115	    679.5	    193.5	      873	    1.17573	 1107.3119	18.430048	1096.0018	    -0.46508	  -0.4110025	 -0.3529175	     -2.3111	     -1.7911	  -0.4342325	  -0.3735875	  -0.1412835	        1.75	    1.624425	   -0.8993225	    -0.784565	   -0.4942077	    -0.561085	   -0.1666625
 1	2	11199	5	  1	3	   0.951418	    500.8	    102.4	    603.2	  0.5020716	 390.28605	44.235732	431.16957	     2.77996	     3.23008	    3.83536	     0.22725	    0.382686	    -0.67543	    -1.64042	   -2.070334	   -0.550386	   -0.746166	      2.10448	      1.58966	     1.765018	    -0.323144	    -0.363442
 1	2	11919	5	  1	3	    0.92346	    331.6	    228.4	      560	  0.7128084	 186.10427	261.54694	 384.2343	      2.6645	     2.98514	  -0.787244	     1.79746	     0.51457	    -1.68842	     -1.9263	  -0.6183662	    -1.11364	   -0.944104	     0.976082	     1.058856	    -1.405598	     0.683792	      -0.4296
 1	2	11991	5	  1	3	   0.742394	    714.4	    113.2	    827.6	  0.6946445	 812.98143	43.326666	837.96826	     2.67478	     2.99072	  -0.500944	   -0.230218	     1.90696	    -1.28288	    -2.01878	  -0.6536066	   -0.945576	    -1.23701	      1.39192	     0.971932	    -1.154563	      -1.1758	     0.670006
 1	2	19119	5	  1	3	    1.81465	    965.6	      166	   1131.6	    0.75141	 343.91394	112.43665	442.47802	     2.91794	  -0.5701776	    2.59164	     2.01946	    0.508474	    -1.75764	    -0.18533	   -0.959107	    -0.58523	   -0.551456	     1.160308	     -0.75553	     1.632546	      1.43424	   -0.0429377
 1	2	19191	5	  1	3	    1.69998	    940.8	    181.2	     1122	  0.2679432	 857.67663	102.39727	916.40384	     3.43766	  -0.2538432	    3.31818	   -0.479652	     1.75668	     -1.9576	   -0.418616	   -1.671178	   -0.429724	     -1.1163	       1.4801	    -0.672452	     1.646988	    -0.909396	     0.640402
 1	2	19911	5	  1	3	    1.30988	   1502.4	    200.8	   1703.2	  0.2672705	 528.56296	202.95615	661.04856	     2.53918	  -0.3013618	  0.0996508	     1.72996	      2.3041	    -1.58304	   -0.517116	   0.2708485	    -1.42734	    -1.23718	     0.956158	    -0.818492	     0.370497	     0.302642	      1.06697
 1	2	91119	5	  1	3	     0.4155	    489.2	      236	    725.2	   0.298771	 504.59211	 88.91569	529.60098	   0.1253996	      3.2775	    3.86516	     1.70994	    0.458454	   -0.180287	    -1.81666	   -2.160932	  -0.2878544	   -0.949526	     -0.05486	      1.46078	     1.704238	       1.4221	    -0.491036
 1	2	91191	4	0.8	3	  0.6783675	    376.5	    100.5	      477	  0.3816631	 254.12005	42.027769	266.58582	   -0.288045	      2.9964	     3.3023	  -0.0277475	    1.740625	    -0.84395	   -1.547375	   -1.346237	     0.52206	  -0.8244475	    -1.131975	      1.44903	     1.956052	    0.4942925	     0.916145
 1	2	91911	5	  1	3	   0.813322	    534.4	    161.2	    695.6	  0.6173907	 623.28228	133.26365	755.81664	   -0.075948	     3.18786	  0.0316872	      1.6664	     1.76314	    -0.71325	     -1.6726	 -0.05476715	    -0.54013	    -1.17036	    -0.789234	      1.51528	  -0.02306162	      1.12624	      0.59277
 1	2	99111	4	0.8	3	  0.3550155	      443	      120	      563	   0.390815	 646.03096	77.991453	674.90938	  -0.2725988	 -0.08087775	   3.004125	    2.135275	      1.5608	    -0.65866	  -0.9570025	    -1.96844	   -1.696575	    -1.04073	     -0.93123	    -1.037902	     1.035654	    0.4386875	    0.5200625
 1	2	11299	5	  1	3	   0.328776	    204.8	    121.6	    326.4	  0.1176886	 176.92145	83.802148	258.64029	     3.47788	     3.50784	    -3.0882	   -0.553148	    0.544724	    -1.90376	     -2.0982	    1.812604	   -0.515958	    -1.20578	      1.57416	      1.40964	    -1.275583	    -1.069124	    -0.661112
 1	2	11929	4	0.8	3	    0.46071	      300	    163.5	    463.5	  0.2324013	  150.9172	80.521219	191.40446	    2.590375	      2.5673	-0.05887925	   -2.616425	   -0.088775	   -1.430525	     -1.8572	   -0.680759	    1.168562	   -0.364795	     1.159875	    0.7100925	   -0.7396167	      -1.4479	     -0.45355
 1	2	11992	5	  1	3	    1.71104	     1236	      132	     1368	  0.2435907	 672.36151	102.49878	628.24677	     3.81866	     2.92498	 -0.4076062	  -0.2577404	    -1.75754	    -1.81746	    -1.87662	   -0.770092	    -0.52577	     1.32812	      2.00126	     1.048332	    -1.177691	    -0.783536	     -0.42951
 1	2	12199	5	  1	3	   0.377539	    555.2	    158.4	    713.6	  0.3248841	 739.57501	135.30262	861.51657	     2.95714	    -3.62196	     3.2156	    0.468584	   0.2546132	    -2.15082	     1.86644	    -2.12412	    -1.13018	    -0.37432	     0.806282	     -1.75554	     1.091481	    -0.661568	   -0.1196928
 1	2	12919	5	  1	3	  0.6265498	    401.2	    216.8	      618	  0.5857755	 300.86077	219.32898	494.07085	      2.6929	    -3.78496	 -0.3389953	     2.12048	    0.448712	    -1.73714	     2.17332	  -0.9556606	    -1.33648	   -0.878208	     0.955768	     -1.61168	    -1.294674	     0.783998	     -0.42956
 1	2	12991	5	  1	3	  0.7932934	    903.6	    208.8	   1112.4	  0.5531554	 678.03599	 122.8381	 771.1931	     2.91988	    -3.31192	  -0.637446	   -0.003944	     1.69066	    -1.47046	      1.6135	  -0.2059744	   -0.669956	    -1.09142	     1.449408	     -1.69852	   -0.8434292	    -0.673888	     0.599302
 1	2	19129	4	0.8	3	  0.8215325	      528	    134.5	    662.5	  0.9374029	 673.53198	81.410483	751.05149	    3.377575	   -0.285985	     2.7573	   -2.426475	   0.2586775	   -2.124625	  -0.9521325	   -2.273297	    0.867165	  -0.5224125	     1.252897	    -1.238083	    0.4840032	      -1.5593	   -0.2637725
 1	2	19192	4	0.8	3	     2.1938	   1492.5	       71	   1563.5	  0.1905891	 1922.8648	38.105118	  1939.57	    2.990675	   -0.425562	     3.4675	    -0.31818	    -1.87425	   -1.342775	    -0.74806	   -1.947263	   0.1247488	    1.287225	     1.647875	    -1.173612	     1.520315	    -0.193425	    -0.586995
 1	2	19219	5	  1	3	   1.231876	   1243.2	     57.6	   1300.8	  0.7103283	 1244.7141	29.271146	1252.4365	      2.8589	   -0.141734	   -3.77488	     1.78678	   0.4123656	    -1.33724	   -0.550146	     2.94733	    -1.08572	   -0.796912	      1.52174	    -0.691856	   -0.8275786	     0.701034	     -0.38449
 1	2	19291	5	  1	3	  0.6193052	    952.8	    249.2	     1202	  0.7539751	 1298.8392	205.51691	1271.9332	     3.27876	    0.213718	   -3.05306	  -0.1011472	     2.13978	    -1.98534	   -0.965652	    1.888996	   -0.994148	    -1.36782	      1.29338	    -0.751966	    -1.164022	    -1.095306	     0.772004
 1	2	19912	5	  1	3	   1.007428	   1478.4	    280.4	   1758.8	  0.4517219	 1125.5482	210.82884	1305.3387	      2.4305	   -0.350924	  -0.587418	     1.72436	    -2.06178	   -0.053416	  -0.3108948	    0.178557	  -0.2249655	     1.39512	      2.37706	    -0.661822	   -0.4088744	       1.4994	    -0.666636
 1	2	19921	3	0.6	3	    0.79346	608.66667	      266	874.66667	  0.8110456	 533.15039	214.81155	734.70085	    2.946167	   0.3726367	 -0.1778477	   -2.303133	    1.597633	     -2.3951	    -0.94665	  -0.6097117	    1.333433	   -1.216367	    0.5510933	       -0.574	    -0.787589	   -0.9696633	    0.3812133
 1	2	21199	5	  1	3	  0.3311366	    206.8	     69.2	      276	  0.5668146	 255.73267	34.135026	246.12192	     -2.7482	     3.52046	    3.46678	 -0.06009722	    0.296164	     1.72268	     -1.6532	    -1.11835	    -0.15952	   -0.409996	    -1.025494	      1.86724	     2.348402	    -0.219616	    -0.113814
 1	2	21919	5	  1	3	    0.73033	    973.2	      198	   1171.2	  0.3816224	  1625.889	135.55811	1760.3168	    -2.77892	     3.25324	  -0.469894	     2.42016	    0.363204	      2.0515	    -1.83156	  -0.4007347	   -1.092164	    -0.58841	     -0.72745	      1.42168	    -0.870616	      1.32804	    -0.225154
 1	2	21991	5	  1	3	   1.013798	    858.8	      174	   1032.8	  0.8451462	 1011.6181	117.53297	1116.9661	    -3.05056	     2.95284	  0.1250672	  -0.1357342	     1.93592	     2.16912	    -1.84646	  -0.7807104	  -0.0148194	    -1.46386	    -0.881428	     1.106388	   -0.6556696	   -0.1505799	     0.472064
 1	2	29119	5	  1	3	   0.497414	    461.2	    115.2	    576.4	  0.2017989	 469.08123	58.371226	523.17378	    -2.92294	   0.0261232	    3.38588	      1.9709	      0.3711	     1.72244	   -0.469244	   -1.061107	    -0.42138	   -0.485328	     -1.20044	    -0.443134	     2.324774	      1.54948	   -0.1142334
 1	2	29191	4	0.8	3	   1.489523	     1547	      182	     1729	   1.160561	 1825.4209	85.479042	1906.8651	   -3.013275	   -0.262495	   2.580025	  -0.4149575	    1.951775	    1.758775	  -0.5453525	   -1.818083	  -0.3171425	   -1.469475	     -1.25445	   -0.8078225	     0.761958	   -0.7320975	    0.4822825
 1	2	29911	4	0.8	3	   0.994725	      995	      255	     1250	  0.4350258	 334.33915	 162.5341	427.48879	      -2.721	  -0.1820808	-0.07485885	    2.090975	    1.935325	     1.81325	      -0.809	  -0.4210052	     -1.2989	    -1.22485	     -0.90776	     -0.99107	    -0.495865	      0.79208	    0.7104775
 1	2	91129	5	  1	3	    0.69177	    303.6	      114	    417.6	  0.7953565	 270.33461	38.392708	285.94195	   0.3767274	     2.97458	     3.1412	    -2.41182	   0.0007648	   -0.995518	    -1.82518	   -1.651212	      1.6078	   -0.583156	    -0.618786	      1.14944	     1.489974	    -0.804018	    -0.582384
 1	2	91192	5	  1	3	    0.70724	      618	      106	      724	  0.6596332	 725.63076	73.212021	792.00884	   -0.434338	     3.34572	    3.05898	    0.092073	    -1.85642	    0.608086	    -1.84796	   -1.875926	   -0.274684	     1.27294	     0.173776	     1.497774	      1.18307	   -0.1826166	      -0.5835
 1	2	91219	4	0.8	3	  0.5518675	    493.5	      186	    679.5	  0.4974665	  464.2108	130.97582	513.47801	   0.2293412	    2.906625	    -4.2873	    1.847975	   0.4244775	    -1.21275	     -1.9308	    3.094315	   -1.506275	   -0.478055	   -0.9834075	      0.97584	    -1.192979	     0.341705	  -0.05352825
 1	2	91291	5	  1	3	   0.460252	    385.6	    190.8	    576.4	  0.3463627	 534.20857	189.51306	719.52123	   0.3129086	     3.07236	   -2.49788	  -0.3541674	     2.01936	   -1.047646	    -1.58802	    2.384578	    0.135037	   -0.773952	    -0.734686	      1.48436	    -0.113277	    -0.219152	     1.245344
 1	2	91912	5	  1	3	   1.461482	   1034.4	       94	   1128.4	  0.4978529	 764.75539	 22.93469	756.41444	  -0.0721136	     3.03692	  -0.559782	     1.87496	     -1.9514	   -0.794762	    -1.87546	   0.1670093	   -1.168554	       1.522	    -0.866904	     1.161448	   -0.3927666	     0.706424	    -0.429536
 1	2	91921	5	  1	3	  0.4114044	    479.2	    187.2	    666.4	  0.4975635	  706.9181	192.25296	896.16003	   -0.137224	     3.37736	 -0.0313732	    -2.19674	     1.75556	   0.1913098	    -1.83974	  -0.5668724	     1.46834	   -1.074266	   0.05409888	     1.537598	   -0.5982504	    -0.728416	     0.681304
 1	2	92119	5	  1	3	  0.5607634	    444.8	     88.4	    533.2	  0.6040186	  519.0657	22.512219	540.06407	 -0.03362824	    -4.28312	    2.92592	      2.0711	    0.231846	    -1.01708	     2.88128	    -2.06897	   -0.770672	   -0.650464	     -1.05066	     -1.40186	    0.8569948	       1.3004	    -0.418704
 1	2	92191	5	  1	3	   1.412844	   1208.8	    356.4	   1565.2	   1.061728	 956.05084	329.34602	1154.4562	    0.039232	    -2.79208	    3.46224	  -0.2763518	     1.97586	    -0.72664	    1.453904	    -1.68352	    -0.36601	    -1.30358	    -0.687456	     -1.33814	     1.778724	    -0.642386	     0.672276
 1	2	92911	5	  1	3	   0.665482	    532.4	    167.2	    699.6	  0.5089506	 398.10903	116.44398	420.59577	   -0.642298	    -4.02856	  -0.090326	     1.71454	     1.56588	  -0.1564418	      2.1856	  -0.5112577	   -0.869472	    -1.04968	     -0.79872	     -1.84292	   -0.6016218	     0.845084	     0.516212
